"","studyid","domain","usubjid","visitnum","visit","visitdy","svstdtc","svendtc"
"1","CDISCPILOT01","SV","01-701-1015",1,"SCREENING 1",-7,"2013-12-26","2013-12-26"
"2","CDISCPILOT01","SV","01-701-1015",2,"SCREENING 2",-1,"2013-12-31","2013-12-31"
"3","CDISCPILOT01","SV","01-701-1015",3,"BASELINE",1,"2014-01-02","2014-01-02"
"4","CDISCPILOT01","SV","01-701-1015",3.5,"AMBUL ECG PLACEMENT",13,"2014-01-14","2014-01-14"
"5","CDISCPILOT01","SV","01-701-1015",4,"WEEK 2",14,"2014-01-16","2014-01-16"
"6","CDISCPILOT01","SV","01-701-1015",5,"WEEK 4",28,"2014-01-30","2014-01-30"
"7","CDISCPILOT01","SV","01-701-1015",6,"AMBUL ECG REMOVAL",30,"2014-02-01","2014-02-01"
"8","CDISCPILOT01","SV","01-701-1015",7,"WEEK 6",42,"2014-02-12","2014-02-12"
"9","CDISCPILOT01","SV","01-701-1015",8,"WEEK 8",56,"2014-03-05","2014-03-05"
"10","CDISCPILOT01","SV","01-701-1015",9,"WEEK 12",84,"2014-03-26","2014-03-26"
"11","CDISCPILOT01","SV","01-701-1015",9.1,"WEEK 14 (T)",98,"2014-04-09","2014-04-09"
"12","CDISCPILOT01","SV","01-701-1015",10,"WEEK 16",112,"2014-05-07","2014-05-07"
"13","CDISCPILOT01","SV","01-701-1015",11,"WEEK 20",140,"2014-05-21","2014-05-21"
"14","CDISCPILOT01","SV","01-701-1015",11.1,"WEEK 22 (T)",154,"2014-06-04","2014-06-04"
"15","CDISCPILOT01","SV","01-701-1015",12,"WEEK 24",168,"2014-06-18","2014-06-18"
"16","CDISCPILOT01","SV","01-701-1015",13,"WEEK 26",182,"2014-07-02","2014-07-02"
"17","CDISCPILOT01","SV","01-701-1023",1,"SCREENING 1",-7,"2012-07-22","2012-07-22"
"18","CDISCPILOT01","SV","01-701-1023",2,"SCREENING 2",-1,"2012-08-03","2012-08-03"
"19","CDISCPILOT01","SV","01-701-1023",3,"BASELINE",1,"2012-08-05","2012-08-05"
"20","CDISCPILOT01","SV","01-701-1023",3.5,"AMBUL ECG PLACEMENT",13,"2012-08-26","2012-08-26"
"21","CDISCPILOT01","SV","01-701-1023",4,"WEEK 2",14,"2012-08-27","2012-08-27"
"22","CDISCPILOT01","SV","01-701-1023",5,"WEEK 4",28,"2012-09-02","2012-09-02"
"23","CDISCPILOT01","SV","01-701-1023",5.1,"UNSCHEDULED 5.1",NA,"2013-02-18","2013-02-18"
"24","CDISCPILOT01","SV","01-701-1023",101,"AE FOLLOW-UP",NA,"2013-02-18","2013-02-18"
"25","CDISCPILOT01","SV","01-701-1023",201,"RETRIEVAL",168,"2013-02-18","2013-02-18"
"26","CDISCPILOT01","SV","01-701-1028",1,"SCREENING 1",-7,"2013-07-11","2013-07-11"
"27","CDISCPILOT01","SV","01-701-1028",2,"SCREENING 2",-1,"2013-07-17","2013-07-17"
"28","CDISCPILOT01","SV","01-701-1028",3,"BASELINE",1,"2013-07-19","2013-07-19"
"29","CDISCPILOT01","SV","01-701-1028",3.5,"AMBUL ECG PLACEMENT",13,"2013-07-31","2013-07-31"
"30","CDISCPILOT01","SV","01-701-1028",4,"WEEK 2",14,"2013-08-01","2013-08-01"
"31","CDISCPILOT01","SV","01-701-1028",5,"WEEK 4",28,"2013-08-14","2013-08-14"
"32","CDISCPILOT01","SV","01-701-1028",6,"AMBUL ECG REMOVAL",30,"2013-08-16","2013-08-16"
"33","CDISCPILOT01","SV","01-701-1028",7,"WEEK 6",42,"2013-08-29","2013-08-29"
"34","CDISCPILOT01","SV","01-701-1028",8,"WEEK 8",56,"2013-09-10","2013-09-10"
"35","CDISCPILOT01","SV","01-701-1028",8.1,"WEEK 10 (T)",70,"2013-09-24","2013-09-24"
"36","CDISCPILOT01","SV","01-701-1028",9,"WEEK 12",84,"2013-10-09","2013-10-09"
"37","CDISCPILOT01","SV","01-701-1028",9.1,"WEEK 14 (T)",98,"2013-10-23","2013-10-23"
"38","CDISCPILOT01","SV","01-701-1028",10,"WEEK 16",112,"2013-11-06","2013-11-06"
"39","CDISCPILOT01","SV","01-701-1028",10.1,"WEEK 18 (T)",126,"2013-11-20","2013-11-20"
"40","CDISCPILOT01","SV","01-701-1028",11,"WEEK 20",140,"2013-12-04","2013-12-04"
"41","CDISCPILOT01","SV","01-701-1028",11.1,"WEEK 22 (T)",154,"2013-12-18","2013-12-18"
"42","CDISCPILOT01","SV","01-701-1028",12,"WEEK 24",168,"2014-01-06","2014-01-06"
"43","CDISCPILOT01","SV","01-701-1028",13,"WEEK 26",182,"2014-01-14","2014-01-14"
"44","CDISCPILOT01","SV","01-701-1033",1,"SCREENING 1",-7,"2014-03-10","2014-03-10"
"45","CDISCPILOT01","SV","01-701-1033",2,"SCREENING 2",-1,"2014-03-16","2014-03-16"
"46","CDISCPILOT01","SV","01-701-1033",3,"BASELINE",1,"2014-03-18","2014-03-18"
"47","CDISCPILOT01","SV","01-701-1033",3.5,"AMBUL ECG PLACEMENT",13,"2014-03-31","2014-03-31"
"48","CDISCPILOT01","SV","01-701-1033",4,"WEEK 2",14,"2014-04-01","2014-04-01"
"49","CDISCPILOT01","SV","01-701-1033",5,"WEEK 4",28,"2014-04-14","2014-04-14"
"50","CDISCPILOT01","SV","01-701-1033",201,"RETRIEVAL",168,"2014-09-15","2014-09-15"
"51","CDISCPILOT01","SV","01-701-1034",1,"SCREENING 1",-7,"2014-06-24","2014-06-24"
"52","CDISCPILOT01","SV","01-701-1034",2,"SCREENING 2",-1,"2014-06-29","2014-06-29"
"53","CDISCPILOT01","SV","01-701-1034",3,"BASELINE",1,"2014-07-01","2014-07-01"
"54","CDISCPILOT01","SV","01-701-1034",4,"WEEK 2",14,"2014-07-15","2014-07-15"
"55","CDISCPILOT01","SV","01-701-1034",5,"WEEK 4",28,"2014-07-29","2014-07-29"
"56","CDISCPILOT01","SV","01-701-1034",6,"AMBUL ECG REMOVAL",30,"2014-07-31","2014-07-31"
"57","CDISCPILOT01","SV","01-701-1034",7,"WEEK 6",42,"2014-08-11","2014-08-11"
"58","CDISCPILOT01","SV","01-701-1034",8,"WEEK 8",56,"2014-08-26","2014-08-26"
"59","CDISCPILOT01","SV","01-701-1034",8.1,"WEEK 10 (T)",70,"2014-09-09","2014-09-09"
"60","CDISCPILOT01","SV","01-701-1034",9,"WEEK 12",84,"2014-09-25","2014-09-25"
"61","CDISCPILOT01","SV","01-701-1034",9.1,"WEEK 14 (T)",98,"2014-10-07","2014-10-07"
"62","CDISCPILOT01","SV","01-701-1034",10,"WEEK 16",112,"2014-10-21","2014-10-21"
"63","CDISCPILOT01","SV","01-701-1034",10.1,"WEEK 18 (T)",126,"2014-11-04","2014-11-04"
"64","CDISCPILOT01","SV","01-701-1034",11,"WEEK 20",140,"2014-11-18","2014-11-18"
"65","CDISCPILOT01","SV","01-701-1034",11.1,"WEEK 22 (T)",154,"2014-12-02","2014-12-02"
"66","CDISCPILOT01","SV","01-701-1034",12,"WEEK 24",168,"2014-12-17","2014-12-17"
"67","CDISCPILOT01","SV","01-701-1034",13,"WEEK 26",182,"2014-12-30","2014-12-30"
"68","CDISCPILOT01","SV","01-701-1047",1,"SCREENING 1",-7,"2013-01-22","2013-01-22"
"69","CDISCPILOT01","SV","01-701-1047",2,"SCREENING 2",-1,"2013-02-10","2013-02-10"
"70","CDISCPILOT01","SV","01-701-1047",3,"BASELINE",1,"2013-02-12","2013-02-12"
"71","CDISCPILOT01","SV","01-701-1047",3.5,"AMBUL ECG PLACEMENT",13,"2013-02-24","2013-02-24"
"72","CDISCPILOT01","SV","01-701-1047",4,"WEEK 2",14,"2013-02-25","2013-02-25"
"73","CDISCPILOT01","SV","01-701-1047",5,"WEEK 4",28,"2013-03-10","2013-03-10"
"74","CDISCPILOT01","SV","01-701-1047",6,"AMBUL ECG REMOVAL",30,"2013-03-29","2013-03-29"
"75","CDISCPILOT01","SV","01-701-1047",6.1,"UNSCHEDULED 6.1",NA,"2013-04-07","2013-04-07"
"76","CDISCPILOT01","SV","01-701-1047",201,"RETRIEVAL",168,"2013-07-28","2013-07-28"
"77","CDISCPILOT01","SV","01-701-1057",1,"SCREENING 1",-7,"2013-12-20","2013-12-20"
"78","CDISCPILOT01","SV","01-701-1097",1,"SCREENING 1",-7,"2013-12-23","2013-12-23"
"79","CDISCPILOT01","SV","01-701-1097",2,"SCREENING 2",-1,"2013-12-30","2013-12-30"
"80","CDISCPILOT01","SV","01-701-1097",3,"BASELINE",1,"2014-01-01","2014-01-01"
"81","CDISCPILOT01","SV","01-701-1097",3.5,"AMBUL ECG PLACEMENT",13,"2014-01-14","2014-01-14"
"82","CDISCPILOT01","SV","01-701-1097",4,"WEEK 2",14,"2014-01-15","2014-01-15"
"83","CDISCPILOT01","SV","01-701-1097",5,"WEEK 4",28,"2014-01-29","2014-01-29"
"84","CDISCPILOT01","SV","01-701-1097",6,"AMBUL ECG REMOVAL",30,"2014-02-04","2014-02-04"
"85","CDISCPILOT01","SV","01-701-1097",7,"WEEK 6",42,"2014-02-11","2014-02-11"
"86","CDISCPILOT01","SV","01-701-1097",8,"WEEK 8",56,"2014-02-26","2014-02-26"
"87","CDISCPILOT01","SV","01-701-1097",9,"WEEK 12",84,"2014-03-26","2014-03-26"
"88","CDISCPILOT01","SV","01-701-1097",9.1,"WEEK 14 (T)",98,"2014-04-09","2014-04-09"
"89","CDISCPILOT01","SV","01-701-1097",10,"WEEK 16",112,"2014-04-23","2014-04-23"
"90","CDISCPILOT01","SV","01-701-1097",10.1,"WEEK 18 (T)",126,"2014-05-07","2014-05-07"
"91","CDISCPILOT01","SV","01-701-1097",11,"WEEK 20",140,"2014-05-21","2014-05-21"
"92","CDISCPILOT01","SV","01-701-1097",11.1,"WEEK 22 (T)",154,"2014-06-04","2014-06-04"
"93","CDISCPILOT01","SV","01-701-1097",12,"WEEK 24",168,"2014-06-18","2014-06-18"
"94","CDISCPILOT01","SV","01-701-1097",13,"WEEK 26",182,"2014-07-09","2014-07-09"
"95","CDISCPILOT01","SV","01-701-1111",1,"SCREENING 1",-7,"2012-08-25","2012-08-25"
"96","CDISCPILOT01","SV","01-701-1111",2,"SCREENING 2",-1,"2012-09-05","2012-09-05"
"97","CDISCPILOT01","SV","01-701-1111",3,"BASELINE",1,"2012-09-07","2012-09-07"
"98","CDISCPILOT01","SV","01-701-1111",4,"WEEK 2",14,"2012-09-17","2012-09-17"
"99","CDISCPILOT01","SV","01-701-1111",101,"AE FOLLOW-UP",NA,"2012-09-29","2012-09-29"
"100","CDISCPILOT01","SV","01-701-1111",201,"RETRIEVAL",168,"2013-02-22","2013-02-22"
"101","CDISCPILOT01","SV","01-701-1115",1,"SCREENING 1",-7,"2012-11-23","2012-11-23"
"102","CDISCPILOT01","SV","01-701-1115",2,"SCREENING 2",-1,"2012-11-28","2012-11-28"
"103","CDISCPILOT01","SV","01-701-1115",3,"BASELINE",1,"2012-11-30","2012-11-30"
"104","CDISCPILOT01","SV","01-701-1115",3.5,"AMBUL ECG PLACEMENT",13,"2012-12-12","2012-12-12"
"105","CDISCPILOT01","SV","01-701-1115",4,"WEEK 2",14,"2012-12-13","2012-12-13"
"106","CDISCPILOT01","SV","01-701-1115",5,"WEEK 4",28,"2012-12-26","2012-12-26"
"107","CDISCPILOT01","SV","01-701-1115",5.1,"UNSCHEDULED 5.1",NA,"2012-12-28","2012-12-28"
"108","CDISCPILOT01","SV","01-701-1115",6,"AMBUL ECG REMOVAL",30,"2012-12-28","2012-12-28"
"109","CDISCPILOT01","SV","01-701-1115",7,"WEEK 6",42,"2013-01-10","2013-01-10"
"110","CDISCPILOT01","SV","01-701-1115",8,"WEEK 8",56,"2013-01-23","2013-01-23"
"111","CDISCPILOT01","SV","01-701-1115",101,"AE FOLLOW-UP",NA,"2013-02-14","2013-02-14"
"112","CDISCPILOT01","SV","01-701-1115",201,"RETRIEVAL",168,"2013-05-20","2013-05-20"
"113","CDISCPILOT01","SV","01-701-1118",1,"SCREENING 1",-7,"2014-02-27","2014-02-27"
"114","CDISCPILOT01","SV","01-701-1118",2,"SCREENING 2",-1,"2014-03-10","2014-03-10"
"115","CDISCPILOT01","SV","01-701-1118",3,"BASELINE",1,"2014-03-12","2014-03-12"
"116","CDISCPILOT01","SV","01-701-1118",3.5,"AMBUL ECG PLACEMENT",13,"2014-03-25","2014-03-25"
"117","CDISCPILOT01","SV","01-701-1118",4,"WEEK 2",14,"2014-03-26","2014-03-26"
"118","CDISCPILOT01","SV","01-701-1118",5,"WEEK 4",28,"2014-04-09","2014-04-09"
"119","CDISCPILOT01","SV","01-701-1118",6,"AMBUL ECG REMOVAL",30,"2014-04-11","2014-04-11"
"120","CDISCPILOT01","SV","01-701-1118",7,"WEEK 6",42,"2014-04-23","2014-04-23"
"121","CDISCPILOT01","SV","01-701-1118",8,"WEEK 8",56,"2014-05-08","2014-05-08"
"122","CDISCPILOT01","SV","01-701-1118",8.1,"WEEK 10 (T)",70,"2014-05-21","2014-05-21"
"123","CDISCPILOT01","SV","01-701-1118",9,"WEEK 12",84,"2014-06-05","2014-06-05"
"124","CDISCPILOT01","SV","01-701-1118",9.1,"WEEK 14 (T)",98,"2014-06-18","2014-06-18"
"125","CDISCPILOT01","SV","01-701-1118",10,"WEEK 16",112,"2014-07-02","2014-07-02"
"126","CDISCPILOT01","SV","01-701-1118",10.1,"WEEK 18 (T)",126,"2014-07-16","2014-07-16"
"127","CDISCPILOT01","SV","01-701-1118",11,"WEEK 20",140,"2014-07-30","2014-07-30"
"128","CDISCPILOT01","SV","01-701-1118",11.1,"WEEK 22 (T)",154,"2014-07-13","2014-07-13"
"129","CDISCPILOT01","SV","01-701-1118",12,"WEEK 24",168,"2014-08-27","2014-08-27"
"130","CDISCPILOT01","SV","01-701-1118",13,"WEEK 26",182,"2014-09-09","2014-09-09"
"131","CDISCPILOT01","SV","01-701-1130",1,"SCREENING 1",-7,"2014-02-09","2014-02-09"
"132","CDISCPILOT01","SV","01-701-1130",2,"SCREENING 2",-1,"2014-02-13","2014-02-13"
"133","CDISCPILOT01","SV","01-701-1130",3,"BASELINE",1,"2014-02-15","2014-02-15"
"134","CDISCPILOT01","SV","01-701-1130",3.5,"AMBUL ECG PLACEMENT",13,"2014-02-28","2014-02-28"
"135","CDISCPILOT01","SV","01-701-1130",4,"WEEK 2",14,"2014-03-01","2014-03-01"
"136","CDISCPILOT01","SV","01-701-1130",5,"WEEK 4",28,"2014-03-15","2014-03-15"
"137","CDISCPILOT01","SV","01-701-1130",6,"AMBUL ECG REMOVAL",30,"2014-03-17","2014-03-17"
"138","CDISCPILOT01","SV","01-701-1130",7,"WEEK 6",42,"2014-03-29","2014-03-29"
"139","CDISCPILOT01","SV","01-701-1130",8,"WEEK 8",56,"2014-04-12","2014-04-12"
"140","CDISCPILOT01","SV","01-701-1130",8.1,"WEEK 10 (T)",70,"2014-04-26","2014-04-26"
"141","CDISCPILOT01","SV","01-701-1130",9,"WEEK 12",84,"2014-05-16","2014-05-16"
"142","CDISCPILOT01","SV","01-701-1130",9.1,"WEEK 14 (T)",98,"2014-05-24","2014-05-24"
"143","CDISCPILOT01","SV","01-701-1130",10,"WEEK 16",112,"2014-06-07","2014-06-07"
"144","CDISCPILOT01","SV","01-701-1130",10.1,"WEEK 18 (T)",126,"2014-06-21","2014-06-21"
"145","CDISCPILOT01","SV","01-701-1130",11,"WEEK 20",140,"2014-07-02","2014-07-02"
"146","CDISCPILOT01","SV","01-701-1130",11.1,"WEEK 22 (T)",154,"2014-07-19","2014-07-19"
"147","CDISCPILOT01","SV","01-701-1130",12,"WEEK 24",168,"2014-08-02","2014-08-02"
"148","CDISCPILOT01","SV","01-701-1130",13,"WEEK 26",182,"2014-08-16","2014-08-16"
"149","CDISCPILOT01","SV","01-701-1133",1,"SCREENING 1",-7,"2012-10-23","2012-10-23"
"150","CDISCPILOT01","SV","01-701-1133",2,"SCREENING 2",-1,"2012-10-26","2012-10-26"
"151","CDISCPILOT01","SV","01-701-1133",3,"BASELINE",1,"2012-10-28","2012-10-28"
"152","CDISCPILOT01","SV","01-701-1133",3.5,"AMBUL ECG PLACEMENT",13,"2012-11-11","2012-11-11"
"153","CDISCPILOT01","SV","01-701-1133",4,"WEEK 2",14,"2012-11-12","2012-11-12"
"154","CDISCPILOT01","SV","01-701-1133",5,"WEEK 4",28,"2012-11-26","2012-11-26"
"155","CDISCPILOT01","SV","01-701-1133",6,"AMBUL ECG REMOVAL",30,"2012-11-28","2012-11-28"
"156","CDISCPILOT01","SV","01-701-1133",7,"WEEK 6",42,"2012-12-11","2012-12-11"
"157","CDISCPILOT01","SV","01-701-1133",8,"WEEK 8",56,"2012-12-24","2012-12-24"
"158","CDISCPILOT01","SV","01-701-1133",8.1,"WEEK 10 (T)",70,"2013-01-07","2013-01-07"
"159","CDISCPILOT01","SV","01-701-1133",9,"WEEK 12",84,"2013-01-22","2013-01-22"
"160","CDISCPILOT01","SV","01-701-1133",9.1,"WEEK 14 (T)",98,"2013-02-04","2013-02-04"
"161","CDISCPILOT01","SV","01-701-1133",10,"WEEK 16",112,"2013-02-18","2013-02-18"
"162","CDISCPILOT01","SV","01-701-1133",10.1,"WEEK 18 (T)",126,"2013-03-04","2013-03-04"
"163","CDISCPILOT01","SV","01-701-1133",11,"WEEK 20",140,"2013-03-18","2013-03-18"
"164","CDISCPILOT01","SV","01-701-1133",11.1,"WEEK 22 (T)",154,"2013-04-01","2013-04-01"
"165","CDISCPILOT01","SV","01-701-1133",12,"WEEK 24",168,"2013-04-18","2013-04-18"
"166","CDISCPILOT01","SV","01-701-1133",13,"WEEK 26",182,"2013-04-29","2013-04-29"
"167","CDISCPILOT01","SV","01-701-1145",1,"SCREENING 1",-7,"2013-09-05","2013-09-05"
"168","CDISCPILOT01","SV","01-701-1146",1,"SCREENING 1",-7,"2013-05-07","2013-05-07"
"169","CDISCPILOT01","SV","01-701-1146",2,"SCREENING 2",-1,"2013-05-18","2013-05-18"
"170","CDISCPILOT01","SV","01-701-1146",3,"BASELINE",1,"2013-05-20","2013-05-20"
"171","CDISCPILOT01","SV","01-701-1146",3.5,"AMBUL ECG PLACEMENT",13,"2013-06-02","2013-06-02"
"172","CDISCPILOT01","SV","01-701-1146",4,"WEEK 2",14,"2013-06-03","2013-06-03"
"173","CDISCPILOT01","SV","01-701-1146",5,"WEEK 4",28,"2013-06-16","2013-06-16"
"174","CDISCPILOT01","SV","01-701-1146",6,"AMBUL ECG REMOVAL",30,"2013-06-18","2013-06-18"
"175","CDISCPILOT01","SV","01-701-1146",7,"WEEK 6",42,"2013-06-30","2013-06-30"
"176","CDISCPILOT01","SV","01-701-1146",101,"AE FOLLOW-UP",NA,"2013-07-15","2013-07-15"
"177","CDISCPILOT01","SV","01-701-1148",1,"SCREENING 1",-7,"2013-08-14","2013-08-14"
"178","CDISCPILOT01","SV","01-701-1148",2,"SCREENING 2",-1,"2013-08-21","2013-08-21"
"179","CDISCPILOT01","SV","01-701-1148",3,"BASELINE",1,"2013-08-23","2013-08-23"
"180","CDISCPILOT01","SV","01-701-1148",3.5,"AMBUL ECG PLACEMENT",13,"2013-09-04","2013-09-04"
"181","CDISCPILOT01","SV","01-701-1148",4,"WEEK 2",14,"2013-09-05","2013-09-05"
"182","CDISCPILOT01","SV","01-701-1148",5,"WEEK 4",28,"2013-09-19","2013-09-19"
"183","CDISCPILOT01","SV","01-701-1148",6,"AMBUL ECG REMOVAL",30,"2013-09-21","2013-09-21"
"184","CDISCPILOT01","SV","01-701-1148",7,"WEEK 6",42,"2013-10-03","2013-10-03"
"185","CDISCPILOT01","SV","01-701-1148",8,"WEEK 8",56,"2013-10-18","2013-10-18"
"186","CDISCPILOT01","SV","01-701-1148",8.1,"WEEK 10 (T)",70,"2013-11-01","2013-11-01"
"187","CDISCPILOT01","SV","01-701-1148",9,"WEEK 12",84,"2013-11-17","2013-11-17"
"188","CDISCPILOT01","SV","01-701-1148",9.1,"WEEK 14 (T)",98,"2013-11-30","2013-11-30"
"189","CDISCPILOT01","SV","01-701-1148",10,"WEEK 16",112,"2013-12-13","2013-12-13"
"190","CDISCPILOT01","SV","01-701-1148",10.1,"WEEK 18 (T)",126,"2013-12-27","2013-12-27"
"191","CDISCPILOT01","SV","01-701-1148",11,"WEEK 20",140,"2014-01-10","2014-01-10"
"192","CDISCPILOT01","SV","01-701-1148",11.1,"WEEK 22 (T)",154,"2014-01-24","2014-01-24"
"193","CDISCPILOT01","SV","01-701-1148",12,"WEEK 24",168,"2014-02-08","2014-02-08"
"194","CDISCPILOT01","SV","01-701-1148",13,"WEEK 26",182,"2014-02-20","2014-02-20"
"195","CDISCPILOT01","SV","01-701-1153",1,"SCREENING 1",-7,"2013-09-06","2013-09-06"
"196","CDISCPILOT01","SV","01-701-1153",2,"SCREENING 2",-1,"2013-09-18","2013-09-18"
"197","CDISCPILOT01","SV","01-701-1153",3,"BASELINE",1,"2013-09-23","2013-09-23"
"198","CDISCPILOT01","SV","01-701-1153",3.5,"AMBUL ECG PLACEMENT",13,"2013-10-07","2013-10-07"
"199","CDISCPILOT01","SV","01-701-1153",4,"WEEK 2",14,"2013-10-08","2013-10-08"
"200","CDISCPILOT01","SV","01-701-1153",5,"WEEK 4",28,"2013-10-19","2013-10-19"
"201","CDISCPILOT01","SV","01-701-1153",5.1,"UNSCHEDULED 5.1",NA,"2013-10-19","2013-10-19"
"202","CDISCPILOT01","SV","01-701-1153",6,"AMBUL ECG REMOVAL",30,"2013-10-28","2013-10-28"
"203","CDISCPILOT01","SV","01-701-1153",7,"WEEK 6",42,"2013-11-04","2013-11-04"
"204","CDISCPILOT01","SV","01-701-1153",8,"WEEK 8",56,"2013-11-18","2013-11-18"
"205","CDISCPILOT01","SV","01-701-1153",8.1,"WEEK 10 (T)",70,"2013-12-02","2013-12-02"
"206","CDISCPILOT01","SV","01-701-1153",9,"WEEK 12",84,"2013-12-16","2013-12-16"
"207","CDISCPILOT01","SV","01-701-1153",9.1,"WEEK 14 (T)",98,"2013-12-30","2013-12-30"
"208","CDISCPILOT01","SV","01-701-1153",9.2,"UNSCHEDULED 9.2",NA,"2014-01-08","2014-01-08"
"209","CDISCPILOT01","SV","01-701-1153",9.3,"UNSCHEDULED 9.3",NA,"2013-12-30","2013-12-30"
"210","CDISCPILOT01","SV","01-701-1153",10,"WEEK 16",112,"2014-01-08","2014-01-08"
"211","CDISCPILOT01","SV","01-701-1153",11,"WEEK 20",140,"2014-02-11","2014-02-11"
"212","CDISCPILOT01","SV","01-701-1153",11.1,"WEEK 22 (T)",154,"2014-02-25","2014-02-25"
"213","CDISCPILOT01","SV","01-701-1153",12,"WEEK 24",168,"2014-03-11","2014-03-11"
"214","CDISCPILOT01","SV","01-701-1153",13,"WEEK 26",182,"2014-04-01","2014-04-01"
"215","CDISCPILOT01","SV","01-701-1162",1,"SCREENING 1",-7,"2013-04-18","2013-04-18"
"216","CDISCPILOT01","SV","01-701-1176",1,"SCREENING 1",-7,"2012-09-30","2012-09-30"
"217","CDISCPILOT01","SV","01-701-1180",1,"SCREENING 1",-7,"2013-01-28","2013-01-28"
"218","CDISCPILOT01","SV","01-701-1180",2,"SCREENING 2",-1,"2013-02-10","2013-02-10"
"219","CDISCPILOT01","SV","01-701-1180",3,"BASELINE",1,"2013-02-12","2013-02-12"
"220","CDISCPILOT01","SV","01-701-1180",3.5,"AMBUL ECG PLACEMENT",13,"2013-02-24","2013-02-24"
"221","CDISCPILOT01","SV","01-701-1180",4,"WEEK 2",14,"2013-02-25","2013-02-25"
"222","CDISCPILOT01","SV","01-701-1180",5,"WEEK 4",28,"2013-03-11","2013-03-11"
"223","CDISCPILOT01","SV","01-701-1180",6,"AMBUL ECG REMOVAL",30,"2013-03-13","2013-03-13"
"224","CDISCPILOT01","SV","01-701-1180",7,"WEEK 6",42,"2013-03-23","2013-03-23"
"225","CDISCPILOT01","SV","01-701-1180",101,"AE FOLLOW-UP",NA,"2013-04-07","2013-04-07"
"226","CDISCPILOT01","SV","01-701-1181",1,"SCREENING 1",-7,"2013-11-26","2013-11-26"
"227","CDISCPILOT01","SV","01-701-1181",2,"SCREENING 2",-1,"2013-12-03","2013-12-03"
"228","CDISCPILOT01","SV","01-701-1181",3,"BASELINE",1,"2013-12-05","2013-12-05"
"229","CDISCPILOT01","SV","01-701-1181",4,"WEEK 2",14,"2013-12-12","2013-12-12"
"230","CDISCPILOT01","SV","01-701-1181",101,"AE FOLLOW-UP",NA,"2013-12-20","2013-12-20"
"231","CDISCPILOT01","SV","01-701-1181",201,"RETRIEVAL",168,"2014-05-23","2014-05-23"
"232","CDISCPILOT01","SV","01-701-1188",1,"SCREENING 1",-7,"2013-02-03","2013-02-03"
"233","CDISCPILOT01","SV","01-701-1188",2,"SCREENING 2",-1,"2013-02-10","2013-02-10"
"234","CDISCPILOT01","SV","01-701-1188",3,"BASELINE",1,"2013-02-15","2013-02-15"
"235","CDISCPILOT01","SV","01-701-1188",3.5,"AMBUL ECG PLACEMENT",13,"2013-03-01","2013-03-01"
"236","CDISCPILOT01","SV","01-701-1188",4,"WEEK 2",14,"2013-03-02","2013-03-02"
"237","CDISCPILOT01","SV","01-701-1188",5,"WEEK 4",28,"2013-03-16","2013-03-16"
"238","CDISCPILOT01","SV","01-701-1188",6,"AMBUL ECG REMOVAL",30,"2013-03-18","2013-03-18"
"239","CDISCPILOT01","SV","01-701-1188",7,"WEEK 6",42,"2013-03-25","2013-03-25"
"240","CDISCPILOT01","SV","01-701-1188",101,"AE FOLLOW-UP",NA,"2013-06-01","2013-06-01"
"241","CDISCPILOT01","SV","01-701-1188",201,"RETRIEVAL",168,"2013-08-04","2013-08-04"
"242","CDISCPILOT01","SV","01-701-1192",1,"SCREENING 1",-7,"2012-07-08","2012-07-08"
"243","CDISCPILOT01","SV","01-701-1192",2,"SCREENING 2",-1,"2012-07-20","2012-07-20"
"244","CDISCPILOT01","SV","01-701-1192",3,"BASELINE",1,"2012-07-22","2012-07-22"
"245","CDISCPILOT01","SV","01-701-1192",3.5,"AMBUL ECG PLACEMENT",13,"2012-08-04","2012-08-04"
"246","CDISCPILOT01","SV","01-701-1192",4,"WEEK 2",14,"2012-08-07","2012-08-07"
"247","CDISCPILOT01","SV","01-701-1192",5,"WEEK 4",28,"2012-08-21","2012-08-21"
"248","CDISCPILOT01","SV","01-701-1192",5.1,"UNSCHEDULED 5.1",NA,"2012-08-21","2012-08-21"
"249","CDISCPILOT01","SV","01-701-1192",6,"AMBUL ECG REMOVAL",30,"2012-08-23","2012-08-23"
"250","CDISCPILOT01","SV","01-701-1192",7,"WEEK 6",42,"2012-09-04","2012-09-04"
"251","CDISCPILOT01","SV","01-701-1192",8,"WEEK 8",56,"2012-09-23","2012-09-23"
"252","CDISCPILOT01","SV","01-701-1192",8.1,"WEEK 10 (T)",70,"2012-09-30","2012-09-30"
"253","CDISCPILOT01","SV","01-701-1192",9,"WEEK 12",84,"2012-10-14","2012-10-14"
"254","CDISCPILOT01","SV","01-701-1192",9.1,"WEEK 14 (T)",98,"2012-10-29","2012-10-29"
"255","CDISCPILOT01","SV","01-701-1192",10,"WEEK 16",112,"2012-11-15","2012-11-15"
"256","CDISCPILOT01","SV","01-701-1192",10.1,"WEEK 18 (T)",126,"2012-11-26","2012-11-26"
"257","CDISCPILOT01","SV","01-701-1192",11,"WEEK 20",140,"2012-12-13","2012-12-13"
"258","CDISCPILOT01","SV","01-701-1192",11.1,"WEEK 22 (T)",154,"2012-12-27","2012-12-27"
"259","CDISCPILOT01","SV","01-701-1192",12,"WEEK 24",168,"2013-01-11","2013-01-11"
"260","CDISCPILOT01","SV","01-701-1192",13,"WEEK 26",182,"2013-01-20","2013-01-20"
"261","CDISCPILOT01","SV","01-701-1203",1,"SCREENING 1",-7,"2013-01-25","2013-01-25"
"262","CDISCPILOT01","SV","01-701-1203",2,"SCREENING 2",-1,"2013-02-01","2013-02-01"
"263","CDISCPILOT01","SV","01-701-1203",3,"BASELINE",1,"2013-02-02","2013-02-02"
"264","CDISCPILOT01","SV","01-701-1203",4,"WEEK 2",14,"2013-02-23","2013-02-23"
"265","CDISCPILOT01","SV","01-701-1203",5,"WEEK 4",28,"2013-03-02","2013-03-02"
"266","CDISCPILOT01","SV","01-701-1203",6,"AMBUL ECG REMOVAL",30,"2013-03-04","2013-03-04"
"267","CDISCPILOT01","SV","01-701-1203",7,"WEEK 6",42,"2013-03-16","2013-03-16"
"268","CDISCPILOT01","SV","01-701-1203",8,"WEEK 8",56,"2013-03-30","2013-03-30"
"269","CDISCPILOT01","SV","01-701-1203",8.1,"WEEK 10 (T)",70,"2013-04-13","2013-04-13"
"270","CDISCPILOT01","SV","01-701-1203",9,"WEEK 12",84,"2013-05-09","2013-05-09"
"271","CDISCPILOT01","SV","01-701-1203",9.1,"WEEK 14 (T)",98,"2013-05-11","2013-05-11"
"272","CDISCPILOT01","SV","01-701-1203",10,"WEEK 16",112,"2013-05-25","2013-05-25"
"273","CDISCPILOT01","SV","01-701-1203",10.1,"WEEK 18 (T)",126,"2013-06-08","2013-06-08"
"274","CDISCPILOT01","SV","01-701-1203",11,"WEEK 20",140,"2013-06-22","2013-06-22"
"275","CDISCPILOT01","SV","01-701-1203",11.1,"WEEK 22 (T)",154,"2013-07-07","2013-07-07"
"276","CDISCPILOT01","SV","01-701-1203",12,"WEEK 24",168,"2013-07-22","2013-07-22"
"277","CDISCPILOT01","SV","01-701-1203",13,"WEEK 26",182,"2013-08-03","2013-08-03"
"278","CDISCPILOT01","SV","01-701-1211",1,"SCREENING 1",-7,"2012-10-30","2012-10-30"
"279","CDISCPILOT01","SV","01-701-1211",2,"SCREENING 2",-1,"2012-11-14","2012-11-14"
"280","CDISCPILOT01","SV","01-701-1211",3,"BASELINE",1,"2012-11-15","2012-11-15"
"281","CDISCPILOT01","SV","01-701-1211",3.5,"AMBUL ECG PLACEMENT",13,"2012-11-27","2012-11-27"
"282","CDISCPILOT01","SV","01-701-1211",4,"WEEK 2",14,"2012-11-28","2012-11-28"
"283","CDISCPILOT01","SV","01-701-1211",5,"WEEK 4",28,"2012-12-11","2012-12-11"
"284","CDISCPILOT01","SV","01-701-1211",6,"AMBUL ECG REMOVAL",30,"2012-12-13","2012-12-13"
"285","CDISCPILOT01","SV","01-701-1211",7,"WEEK 6",42,"2012-12-25","2012-12-25"
"286","CDISCPILOT01","SV","01-701-1211",8,"WEEK 8",56,"2013-01-08","2013-01-08"
"287","CDISCPILOT01","SV","01-701-1211",9,"WEEK 12",84,"2013-01-14","2013-01-14"
"288","CDISCPILOT01","SV","01-701-1234",1,"SCREENING 1",-7,"2013-03-20","2013-03-20"
"289","CDISCPILOT01","SV","01-701-1234",2,"SCREENING 2",-1,"2013-03-28","2013-03-28"
"290","CDISCPILOT01","SV","01-701-1234",3,"BASELINE",1,"2013-03-30","2013-03-30"
"291","CDISCPILOT01","SV","01-701-1234",3.5,"AMBUL ECG PLACEMENT",13,"2013-04-20","2013-04-20"
"292","CDISCPILOT01","SV","01-701-1234",4,"WEEK 2",14,"2013-04-21","2013-04-21"
"293","CDISCPILOT01","SV","01-701-1234",5,"WEEK 4",28,"2013-04-28","2013-04-28"
"294","CDISCPILOT01","SV","01-701-1234",6,"AMBUL ECG REMOVAL",30,"2013-04-30","2013-04-30"
"295","CDISCPILOT01","SV","01-701-1234",7,"WEEK 6",42,"2013-05-08","2013-05-08"
"296","CDISCPILOT01","SV","01-701-1234",8,"WEEK 8",56,"2013-05-26","2013-05-26"
"297","CDISCPILOT01","SV","01-701-1234",8.1,"WEEK 10 (T)",70,"2013-06-09","2013-06-09"
"298","CDISCPILOT01","SV","01-701-1234",9,"WEEK 12",84,"2013-07-07","2013-07-07"
"299","CDISCPILOT01","SV","01-701-1234",10,"WEEK 16",112,"2013-07-27","2013-07-27"
"300","CDISCPILOT01","SV","01-701-1234",10.1,"WEEK 18 (T)",126,"2013-08-10","2013-08-10"
"301","CDISCPILOT01","SV","01-701-1234",11,"WEEK 20",140,"2013-08-18","2013-08-18"
"302","CDISCPILOT01","SV","01-701-1234",11.1,"WEEK 22 (T)",154,"2013-09-01","2013-09-01"
"303","CDISCPILOT01","SV","01-701-1234",12,"WEEK 24",168,"2013-09-10","2013-09-10"
"304","CDISCPILOT01","SV","01-701-1234",13,"WEEK 26",182,"2013-09-22","2013-09-22"
"305","CDISCPILOT01","SV","01-701-1239",1,"SCREENING 1",-7,"2013-12-28","2013-12-28"
"306","CDISCPILOT01","SV","01-701-1239",1.1,"UNSCHEDULED 1.1",NA,"2014-01-06","2014-01-06"
"307","CDISCPILOT01","SV","01-701-1239",2,"SCREENING 2",-1,"2014-01-09","2014-01-09"
"308","CDISCPILOT01","SV","01-701-1239",3,"BASELINE",1,"2014-01-11","2014-01-11"
"309","CDISCPILOT01","SV","01-701-1239",3.5,"AMBUL ECG PLACEMENT",13,"2014-01-24","2014-01-24"
"310","CDISCPILOT01","SV","01-701-1239",4,"WEEK 2",14,"2014-01-25","2014-01-25"
"311","CDISCPILOT01","SV","01-701-1239",5,"WEEK 4",28,"2014-02-08","2014-02-08"
"312","CDISCPILOT01","SV","01-701-1239",6,"AMBUL ECG REMOVAL",30,"2014-02-10","2014-02-10"
"313","CDISCPILOT01","SV","01-701-1239",7,"WEEK 6",42,"2014-02-19","2014-02-19"
"314","CDISCPILOT01","SV","01-701-1239",8,"WEEK 8",56,"2014-03-06","2014-03-06"
"315","CDISCPILOT01","SV","01-701-1239",8.1,"WEEK 10 (T)",70,"2014-03-19","2014-03-19"
"316","CDISCPILOT01","SV","01-701-1239",9,"WEEK 12",84,"2014-04-02","2014-04-02"
"317","CDISCPILOT01","SV","01-701-1239",9.1,"WEEK 14 (T)",98,"2014-04-16","2014-04-16"
"318","CDISCPILOT01","SV","01-701-1239",10,"WEEK 16",112,"2014-05-02","2014-05-02"
"319","CDISCPILOT01","SV","01-701-1239",10.1,"WEEK 18 (T)",126,"2014-05-14","2014-05-14"
"320","CDISCPILOT01","SV","01-701-1239",11,"WEEK 20",140,"2014-05-28","2014-05-28"
"321","CDISCPILOT01","SV","01-701-1239",11.1,"WEEK 22 (T)",154,"2014-06-11","2014-06-11"
"322","CDISCPILOT01","SV","01-701-1239",12,"WEEK 24",168,"2014-06-27","2014-06-27"
"323","CDISCPILOT01","SV","01-701-1239",13,"WEEK 26",182,"2014-07-11","2014-07-11"
"324","CDISCPILOT01","SV","01-701-1240",1,"SCREENING 1",-7,"2013-09-22","2013-09-22"
"325","CDISCPILOT01","SV","01-701-1275",1,"SCREENING 1",-7,"2014-01-25","2014-01-25"
"326","CDISCPILOT01","SV","01-701-1275",2,"SCREENING 2",-1,"2014-02-05","2014-02-05"
"327","CDISCPILOT01","SV","01-701-1275",3,"BASELINE",1,"2014-02-07","2014-02-07"
"328","CDISCPILOT01","SV","01-701-1275",3.5,"AMBUL ECG PLACEMENT",13,"2014-02-21","2014-02-21"
"329","CDISCPILOT01","SV","01-701-1275",4,"WEEK 2",14,"2014-02-22","2014-02-22"
"330","CDISCPILOT01","SV","01-701-1275",5,"WEEK 4",28,"2014-03-07","2014-03-07"
"331","CDISCPILOT01","SV","01-701-1275",6,"AMBUL ECG REMOVAL",30,"2014-03-08","2014-03-08"
"332","CDISCPILOT01","SV","01-701-1275",7,"WEEK 6",42,"2014-03-22","2014-03-22"
"333","CDISCPILOT01","SV","01-701-1275",8,"WEEK 8",56,"2014-04-05","2014-04-05"
"334","CDISCPILOT01","SV","01-701-1275",8.1,"WEEK 10 (T)",70,"2014-04-19","2014-04-19"
"335","CDISCPILOT01","SV","01-701-1275",9,"WEEK 12",84,"2014-05-03","2014-05-03"
"336","CDISCPILOT01","SV","01-701-1275",9.1,"WEEK 14 (T)",98,"2014-05-17","2014-05-17"
"337","CDISCPILOT01","SV","01-701-1275",10,"WEEK 16",112,"2014-06-14","2014-06-14"
"338","CDISCPILOT01","SV","01-701-1287",1,"SCREENING 1",-7,"2014-01-17","2014-01-17"
"339","CDISCPILOT01","SV","01-701-1287",2,"SCREENING 2",-1,"2014-01-23","2014-01-23"
"340","CDISCPILOT01","SV","01-701-1287",3,"BASELINE",1,"2014-01-25","2014-01-25"
"341","CDISCPILOT01","SV","01-701-1287",4,"WEEK 2",14,"2014-02-11","2014-02-11"
"342","CDISCPILOT01","SV","01-701-1287",5,"WEEK 4",28,"2014-02-20","2014-02-20"
"343","CDISCPILOT01","SV","01-701-1287",6,"AMBUL ECG REMOVAL",30,"2014-02-22","2014-02-22"
"344","CDISCPILOT01","SV","01-701-1287",7,"WEEK 6",42,"2014-03-06","2014-03-06"
"345","CDISCPILOT01","SV","01-701-1287",8,"WEEK 8",56,"2014-03-21","2014-03-21"
"346","CDISCPILOT01","SV","01-701-1287",8.1,"WEEK 10 (T)",70,"2014-04-03","2014-04-03"
"347","CDISCPILOT01","SV","01-701-1287",9,"WEEK 12",84,"2014-04-17","2014-04-17"
"348","CDISCPILOT01","SV","01-701-1287",9.1,"WEEK 14 (T)",98,"2014-05-01","2014-05-01"
"349","CDISCPILOT01","SV","01-701-1287",10,"WEEK 16",112,"2014-05-15","2014-05-15"
"350","CDISCPILOT01","SV","01-701-1287",10.1,"WEEK 18 (T)",126,"2014-05-29","2014-05-29"
"351","CDISCPILOT01","SV","01-701-1287",11,"WEEK 20",140,"2014-06-12","2014-06-12"
"352","CDISCPILOT01","SV","01-701-1287",11.1,"WEEK 22 (T)",154,"2014-06-26","2014-06-26"
"353","CDISCPILOT01","SV","01-701-1287",12,"WEEK 24",168,"2014-07-12","2014-07-12"
"354","CDISCPILOT01","SV","01-701-1287",13,"WEEK 26",182,"2014-07-26","2014-07-26"
"355","CDISCPILOT01","SV","01-701-1294",1,"SCREENING 1",-7,"2013-03-17","2013-03-17"
"356","CDISCPILOT01","SV","01-701-1294",2,"SCREENING 2",-1,"2013-03-22","2013-03-22"
"357","CDISCPILOT01","SV","01-701-1294",3,"BASELINE",1,"2013-03-24","2013-03-24"
"358","CDISCPILOT01","SV","01-701-1294",3.5,"AMBUL ECG PLACEMENT",13,"2013-04-09","2013-04-09"
"359","CDISCPILOT01","SV","01-701-1294",4,"WEEK 2",14,"2013-04-10","2013-04-10"
"360","CDISCPILOT01","SV","01-701-1294",5,"WEEK 4",28,"2013-04-24","2013-04-24"
"361","CDISCPILOT01","SV","01-701-1294",6,"AMBUL ECG REMOVAL",30,"2013-04-26","2013-04-26"
"362","CDISCPILOT01","SV","01-701-1294",7,"WEEK 6",42,"2013-05-08","2013-05-08"
"363","CDISCPILOT01","SV","01-701-1294",8,"WEEK 8",56,"2013-05-22","2013-05-22"
"364","CDISCPILOT01","SV","01-701-1294",8.1,"WEEK 10 (T)",70,"2013-06-05","2013-06-05"
"365","CDISCPILOT01","SV","01-701-1294",9,"WEEK 12",84,"2013-06-14","2013-06-14"
"366","CDISCPILOT01","SV","01-701-1294",101,"AE FOLLOW-UP",NA,"2013-08-23","2013-08-23"
"367","CDISCPILOT01","SV","01-701-1294",201,"RETRIEVAL",168,"2013-10-08","2013-10-08"
"368","CDISCPILOT01","SV","01-701-1302",1,"SCREENING 1",-7,"2013-08-20","2013-08-20"
"369","CDISCPILOT01","SV","01-701-1302",2,"SCREENING 2",-1,"2013-08-27","2013-08-27"
"370","CDISCPILOT01","SV","01-701-1302",3,"BASELINE",1,"2013-08-29","2013-08-29"
"371","CDISCPILOT01","SV","01-701-1302",3.5,"AMBUL ECG PLACEMENT",13,"2013-09-09","2013-09-09"
"372","CDISCPILOT01","SV","01-701-1302",4,"WEEK 2",14,"2013-09-15","2013-09-15"
"373","CDISCPILOT01","SV","01-701-1302",5,"WEEK 4",28,"2013-09-24","2013-09-24"
"374","CDISCPILOT01","SV","01-701-1302",6,"AMBUL ECG REMOVAL",30,"2013-09-26","2013-09-26"
"375","CDISCPILOT01","SV","01-701-1302",7,"WEEK 6",42,"2013-10-08","2013-10-08"
"376","CDISCPILOT01","SV","01-701-1302",8,"WEEK 8",56,"2013-10-22","2013-10-22"
"377","CDISCPILOT01","SV","01-701-1302",9,"WEEK 12",84,"2013-11-05","2013-11-05"
"378","CDISCPILOT01","SV","01-701-1302",101,"AE FOLLOW-UP",NA,"2013-12-16","2013-12-16"
"379","CDISCPILOT01","SV","01-701-1302",201,"RETRIEVAL",168,"2014-02-13","2014-02-13"
"380","CDISCPILOT01","SV","01-701-1307",1,"SCREENING 1",-7,"2013-12-08","2013-12-08"
"381","CDISCPILOT01","SV","01-701-1317",1,"SCREENING 1",-7,"2014-05-10","2014-05-10"
"382","CDISCPILOT01","SV","01-701-1317",1.1,"UNSCHEDULED 1.1",NA,"2014-05-10","2014-05-10"
"383","CDISCPILOT01","SV","01-701-1317",2,"SCREENING 2",-1,"2014-05-20","2014-05-20"
"384","CDISCPILOT01","SV","01-701-1317",3,"BASELINE",1,"2014-05-22","2014-05-22"
"385","CDISCPILOT01","SV","01-701-1317",3.5,"AMBUL ECG PLACEMENT",13,"2014-06-04","2014-06-04"
"386","CDISCPILOT01","SV","01-701-1317",4,"WEEK 2",14,"2014-06-05","2014-06-05"
"387","CDISCPILOT01","SV","01-701-1317",5,"WEEK 4",28,"2014-06-19","2014-06-19"
"388","CDISCPILOT01","SV","01-701-1317",6,"AMBUL ECG REMOVAL",30,"2014-06-21","2014-06-21"
"389","CDISCPILOT01","SV","01-701-1317",7,"WEEK 6",42,"2014-07-03","2014-07-03"
"390","CDISCPILOT01","SV","01-701-1317",8,"WEEK 8",56,"2014-07-22","2014-07-22"
"391","CDISCPILOT01","SV","01-701-1317",8.1,"WEEK 10 (T)",70,"2014-07-30","2014-07-30"
"392","CDISCPILOT01","SV","01-701-1317",9,"WEEK 12",84,"2014-08-15","2014-08-15"
"393","CDISCPILOT01","SV","01-701-1317",9.1,"WEEK 14 (T)",98,"2014-08-28","2014-08-28"
"394","CDISCPILOT01","SV","01-701-1317",10,"WEEK 16",112,"2014-09-11","2014-09-11"
"395","CDISCPILOT01","SV","01-701-1317",10.1,"WEEK 18 (T)",126,"2014-09-25","2014-09-25"
"396","CDISCPILOT01","SV","01-701-1317",11,"WEEK 20",140,"2014-10-09","2014-10-09"
"397","CDISCPILOT01","SV","01-701-1317",11.1,"WEEK 22 (T)",154,"2014-10-23","2014-10-23"
"398","CDISCPILOT01","SV","01-701-1317",12,"WEEK 24",168,"2014-11-06","2014-11-06"
"399","CDISCPILOT01","SV","01-701-1317",13,"WEEK 26",182,"2014-11-20","2014-11-20"
"400","CDISCPILOT01","SV","01-701-1324",1,"SCREENING 1",-7,"2012-09-16","2012-09-16"
"401","CDISCPILOT01","SV","01-701-1324",1.1,"UNSCHEDULED 1.1",NA,"2012-09-25","2012-09-25"
"402","CDISCPILOT01","SV","01-701-1324",2,"SCREENING 2",-1,"2012-09-25","2012-09-25"
"403","CDISCPILOT01","SV","01-701-1324",3,"BASELINE",1,"2012-10-02","2012-10-02"
"404","CDISCPILOT01","SV","01-701-1324",3.5,"AMBUL ECG PLACEMENT",13,"2012-10-15","2012-10-15"
"405","CDISCPILOT01","SV","01-701-1324",4,"WEEK 2",14,"2012-10-16","2012-10-16"
"406","CDISCPILOT01","SV","01-701-1324",4.1,"UNSCHEDULED 4.1",NA,"2012-10-25","2012-10-25"
"407","CDISCPILOT01","SV","01-701-1324",5,"WEEK 4",28,"2012-10-30","2012-10-30"
"408","CDISCPILOT01","SV","01-701-1324",6,"AMBUL ECG REMOVAL",30,"2012-11-01","2012-11-01"
"409","CDISCPILOT01","SV","01-701-1324",7,"WEEK 6",42,"2012-11-13","2012-11-13"
"410","CDISCPILOT01","SV","01-701-1324",8,"WEEK 8",56,"2012-11-25","2012-11-25"
"411","CDISCPILOT01","SV","01-701-1324",8.1,"WEEK 10 (T)",70,"2012-12-11","2012-12-11"
"412","CDISCPILOT01","SV","01-701-1324",9,"WEEK 12",84,"2012-12-25","2012-12-25"
"413","CDISCPILOT01","SV","01-701-1324",9.1,"WEEK 14 (T)",98,"2013-01-08","2013-01-08"
"414","CDISCPILOT01","SV","01-701-1324",10,"WEEK 16",112,"2013-01-22","2013-01-22"
"415","CDISCPILOT01","SV","01-701-1324",10.1,"WEEK 18 (T)",126,"2013-02-05","2013-02-05"
"416","CDISCPILOT01","SV","01-701-1324",11,"WEEK 20",140,"2013-02-19","2013-02-19"
"417","CDISCPILOT01","SV","01-701-1324",11.1,"WEEK 22 (T)",154,"2013-03-05","2013-03-05"
"418","CDISCPILOT01","SV","01-701-1324",12,"WEEK 24",168,"2013-03-19","2013-03-19"
"419","CDISCPILOT01","SV","01-701-1324",13,"WEEK 26",182,"2013-04-02","2013-04-02"
"420","CDISCPILOT01","SV","01-701-1341",1,"SCREENING 1",-7,"2012-12-22","2012-12-22"
"421","CDISCPILOT01","SV","01-701-1341",1.1,"UNSCHEDULED 1.1",NA,"2012-12-26","2012-12-26"
"422","CDISCPILOT01","SV","01-701-1341",2,"SCREENING 2",-1,"2013-01-03","2013-01-03"
"423","CDISCPILOT01","SV","01-701-1341",3,"BASELINE",1,"2013-01-05","2013-01-05"
"424","CDISCPILOT01","SV","01-701-1341",3.5,"AMBUL ECG PLACEMENT",13,"2013-01-17","2013-01-17"
"425","CDISCPILOT01","SV","01-701-1341",4,"WEEK 2",14,"2013-01-18","2013-01-18"
"426","CDISCPILOT01","SV","01-701-1341",5,"WEEK 4",28,"2013-02-07","2013-02-07"
"427","CDISCPILOT01","SV","01-701-1341",101,"AE FOLLOW-UP",NA,"2013-02-21","2013-02-21"
"428","CDISCPILOT01","SV","01-701-1345",1,"SCREENING 1",-7,"2013-10-01","2013-10-01"
"429","CDISCPILOT01","SV","01-701-1345",2,"SCREENING 2",-1,"2013-10-06","2013-10-06"
"430","CDISCPILOT01","SV","01-701-1345",3,"BASELINE",1,"2013-10-08","2013-10-08"
"431","CDISCPILOT01","SV","01-701-1345",3.5,"AMBUL ECG PLACEMENT",13,"2013-10-23","2013-10-23"
"432","CDISCPILOT01","SV","01-701-1345",4,"WEEK 2",14,"2013-10-24","2013-10-24"
"433","CDISCPILOT01","SV","01-701-1345",5,"WEEK 4",28,"2013-11-08","2013-11-08"
"434","CDISCPILOT01","SV","01-701-1345",6,"AMBUL ECG REMOVAL",30,"2013-11-10","2013-11-10"
"435","CDISCPILOT01","SV","01-701-1345",7,"WEEK 6",42,"2013-11-19","2013-11-19"
"436","CDISCPILOT01","SV","01-701-1345",8,"WEEK 8",56,"2013-12-03","2013-12-03"
"437","CDISCPILOT01","SV","01-701-1345",8.1,"WEEK 10 (T)",70,"2013-12-18","2013-12-18"
"438","CDISCPILOT01","SV","01-701-1345",9,"WEEK 12",84,"2013-12-31","2013-12-31"
"439","CDISCPILOT01","SV","01-701-1345",9.1,"WEEK 14 (T)",98,"2014-01-14","2014-01-14"
"440","CDISCPILOT01","SV","01-701-1345",10,"WEEK 16",112,"2014-01-27","2014-01-27"
"441","CDISCPILOT01","SV","01-701-1345",10.1,"WEEK 18 (T)",126,"2014-02-11","2014-02-11"
"442","CDISCPILOT01","SV","01-701-1345",11,"WEEK 20",140,"2014-02-25","2014-02-25"
"443","CDISCPILOT01","SV","01-701-1345",11.1,"WEEK 22 (T)",154,"2014-03-11","2014-03-11"
"444","CDISCPILOT01","SV","01-701-1345",12,"WEEK 24",168,"2014-03-18","2014-03-18"
"445","CDISCPILOT01","SV","01-701-1356",1,"SCREENING 1",-7,"2014-04-01","2014-04-01"
"446","CDISCPILOT01","SV","01-701-1360",1,"SCREENING 1",-7,"2013-07-24","2013-07-24"
"447","CDISCPILOT01","SV","01-701-1360",2,"SCREENING 2",-1,"2013-07-29","2013-07-29"
"448","CDISCPILOT01","SV","01-701-1360",3,"BASELINE",1,"2013-07-31","2013-07-31"
"449","CDISCPILOT01","SV","01-701-1360",4,"WEEK 2",14,"2013-08-14","2013-08-14"
"450","CDISCPILOT01","SV","01-701-1360",101,"AE FOLLOW-UP",NA,"2013-09-09","2013-09-09"
"451","CDISCPILOT01","SV","01-701-1360",201,"RETRIEVAL",168,"2014-02-11","2014-02-11"
"452","CDISCPILOT01","SV","01-701-1363",1,"SCREENING 1",-7,"2013-05-20","2013-05-20"
"453","CDISCPILOT01","SV","01-701-1363",2,"SCREENING 2",-1,"2013-05-28","2013-05-28"
"454","CDISCPILOT01","SV","01-701-1363",3,"BASELINE",1,"2013-05-30","2013-05-30"
"455","CDISCPILOT01","SV","01-701-1363",3.5,"AMBUL ECG PLACEMENT",13,"2013-06-11","2013-06-11"
"456","CDISCPILOT01","SV","01-701-1363",4,"WEEK 2",14,"2013-06-12","2013-06-12"
"457","CDISCPILOT01","SV","01-701-1363",5,"WEEK 4",28,"2013-06-25","2013-06-25"
"458","CDISCPILOT01","SV","01-701-1363",6,"AMBUL ECG REMOVAL",30,"2013-06-27","2013-06-27"
"459","CDISCPILOT01","SV","01-701-1363",7,"WEEK 6",42,"2013-07-10","2013-07-10"
"460","CDISCPILOT01","SV","01-701-1363",8,"WEEK 8",56,"2013-07-24","2013-07-24"
"461","CDISCPILOT01","SV","01-701-1363",8.1,"WEEK 10 (T)",70,"2013-08-07","2013-08-07"
"462","CDISCPILOT01","SV","01-701-1363",9,"WEEK 12",84,"2013-08-21","2013-08-21"
"463","CDISCPILOT01","SV","01-701-1363",9.1,"WEEK 14 (T)",98,"2013-09-04","2013-09-04"
"464","CDISCPILOT01","SV","01-701-1363",10,"WEEK 16",112,"2013-09-18","2013-09-18"
"465","CDISCPILOT01","SV","01-701-1363",10.1,"WEEK 18 (T)",126,"2013-10-02","2013-10-02"
"466","CDISCPILOT01","SV","01-701-1363",10.2,"UNSCHEDULED 10.2",NA,"2013-10-02","2013-10-02"
"467","CDISCPILOT01","SV","01-701-1363",11,"WEEK 20",140,"2013-10-14","2013-10-14"
"468","CDISCPILOT01","SV","01-701-1363",11.1,"WEEK 22 (T)",154,"2013-10-30","2013-10-30"
"469","CDISCPILOT01","SV","01-701-1363",12,"WEEK 24",168,"2013-11-13","2013-11-13"
"470","CDISCPILOT01","SV","01-701-1363",13,"WEEK 26",182,"2013-11-27","2013-11-27"
"471","CDISCPILOT01","SV","01-701-1369",1,"SCREENING 1",-7,"2013-09-18","2013-09-18"
"472","CDISCPILOT01","SV","01-701-1383",1,"SCREENING 1",-7,"2013-01-22","2013-01-22"
"473","CDISCPILOT01","SV","01-701-1383",2,"SCREENING 2",-1,"2013-02-02","2013-02-02"
"474","CDISCPILOT01","SV","01-701-1383",3,"BASELINE",1,"2013-02-04","2013-02-04"
"475","CDISCPILOT01","SV","01-701-1383",3.5,"AMBUL ECG PLACEMENT",13,"2013-02-18","2013-02-18"
"476","CDISCPILOT01","SV","01-701-1383",4,"WEEK 2",14,"2013-02-19","2013-02-19"
"477","CDISCPILOT01","SV","01-701-1383",5,"WEEK 4",28,"2013-03-12","2013-03-12"
"478","CDISCPILOT01","SV","01-701-1383",6,"AMBUL ECG REMOVAL",30,"2013-03-14","2013-03-14"
"479","CDISCPILOT01","SV","01-701-1383",7,"WEEK 6",42,"2013-03-19","2013-03-19"
"480","CDISCPILOT01","SV","01-701-1383",8,"WEEK 8",56,"2013-04-02","2013-04-02"
"481","CDISCPILOT01","SV","01-701-1383",8.1,"WEEK 10 (T)",70,"2013-04-16","2013-04-16"
"482","CDISCPILOT01","SV","01-701-1383",9,"WEEK 12",84,"2013-04-30","2013-04-30"
"483","CDISCPILOT01","SV","01-701-1383",9.1,"WEEK 14 (T)",98,"2013-05-14","2013-05-14"
"484","CDISCPILOT01","SV","01-701-1383",10,"WEEK 16",112,"2013-05-30","2013-05-30"
"485","CDISCPILOT01","SV","01-701-1383",10.1,"WEEK 18 (T)",126,"2013-06-13","2013-06-13"
"486","CDISCPILOT01","SV","01-701-1383",11,"WEEK 20",140,"2013-06-25","2013-06-25"
"487","CDISCPILOT01","SV","01-701-1383",11.1,"WEEK 22 (T)",154,"2013-07-09","2013-07-09"
"488","CDISCPILOT01","SV","01-701-1383",12,"WEEK 24",168,"2013-07-30","2013-07-30"
"489","CDISCPILOT01","SV","01-701-1383",13,"WEEK 26",182,"2013-08-06","2013-08-06"
"490","CDISCPILOT01","SV","01-701-1386",1,"SCREENING 1",-7,"2013-12-28","2013-12-28"
"491","CDISCPILOT01","SV","01-701-1387",1,"SCREENING 1",-7,"2014-02-23","2014-02-23"
"492","CDISCPILOT01","SV","01-701-1387",2,"SCREENING 2",-1,"2014-03-08","2014-03-08"
"493","CDISCPILOT01","SV","01-701-1387",3,"BASELINE",1,"2014-03-12","2014-03-12"
"494","CDISCPILOT01","SV","01-701-1387",4,"WEEK 2",14,"2014-03-25","2014-03-25"
"495","CDISCPILOT01","SV","01-701-1387",201,"RETRIEVAL",168,"2014-08-27","2014-08-27"
"496","CDISCPILOT01","SV","01-701-1392",1,"SCREENING 1",-7,"2012-10-17","2012-10-17"
"497","CDISCPILOT01","SV","01-701-1392",2,"SCREENING 2",-1,"2012-10-26","2012-10-26"
"498","CDISCPILOT01","SV","01-701-1392",3,"BASELINE",1,"2012-10-28","2012-10-28"
"499","CDISCPILOT01","SV","01-701-1392",3.5,"AMBUL ECG PLACEMENT",13,"2012-11-10","2012-11-10"
"500","CDISCPILOT01","SV","01-701-1392",4,"WEEK 2",14,"2012-11-11","2012-11-11"
"501","CDISCPILOT01","SV","01-701-1392",5,"WEEK 4",28,"2012-11-24","2012-11-24"
"502","CDISCPILOT01","SV","01-701-1392",6,"AMBUL ECG REMOVAL",30,"2012-11-26","2012-11-26"
"503","CDISCPILOT01","SV","01-701-1392",7,"WEEK 6",42,"2012-12-09","2012-12-09"
"504","CDISCPILOT01","SV","01-701-1392",8,"WEEK 8",56,"2012-12-20","2012-12-20"
"505","CDISCPILOT01","SV","01-701-1392",8.1,"WEEK 10 (T)",70,"2013-01-06","2013-01-06"
"506","CDISCPILOT01","SV","01-701-1392",9,"WEEK 12",84,"2013-01-20","2013-01-20"
"507","CDISCPILOT01","SV","01-701-1392",9.1,"WEEK 14 (T)",98,"2013-02-03","2013-02-03"
"508","CDISCPILOT01","SV","01-701-1392",10,"WEEK 16",112,"2013-02-17","2013-02-17"
"509","CDISCPILOT01","SV","01-701-1392",10.1,"WEEK 18 (T)",126,"2013-03-03","2013-03-03"
"510","CDISCPILOT01","SV","01-701-1392",11,"WEEK 20",140,"2013-03-17","2013-03-17"
"511","CDISCPILOT01","SV","01-701-1392",11.1,"WEEK 22 (T)",154,"2013-03-31","2013-03-31"
"512","CDISCPILOT01","SV","01-701-1392",12,"WEEK 24",168,"2013-04-15","2013-04-15"
"513","CDISCPILOT01","SV","01-701-1392",13,"WEEK 26",182,"2013-04-28","2013-04-28"
"514","CDISCPILOT01","SV","01-701-1411",1,"SCREENING 1",-7,"2012-11-14","2012-11-14"
"515","CDISCPILOT01","SV","01-701-1415",1,"SCREENING 1",-7,"2013-09-15","2013-09-15"
"516","CDISCPILOT01","SV","01-701-1415",1.1,"UNSCHEDULED 1.1",NA,"2013-09-21","2013-09-21"
"517","CDISCPILOT01","SV","01-701-1415",2,"SCREENING 2",-1,"2013-09-21","2013-09-21"
"518","CDISCPILOT01","SV","01-701-1415",3,"BASELINE",1,"2013-09-23","2013-09-23"
"519","CDISCPILOT01","SV","01-701-1415",3.5,"AMBUL ECG PLACEMENT",13,"2013-10-06","2013-10-06"
"520","CDISCPILOT01","SV","01-701-1415",4,"WEEK 2",14,"2013-10-07","2013-10-07"
"521","CDISCPILOT01","SV","01-701-1415",5,"WEEK 4",28,"2013-10-20","2013-10-20"
"522","CDISCPILOT01","SV","01-701-1415",6,"AMBUL ECG REMOVAL",30,"2013-10-22","2013-10-22"
"523","CDISCPILOT01","SV","01-701-1415",7,"WEEK 6",42,"2013-11-04","2013-11-04"
"524","CDISCPILOT01","SV","01-701-1415",8,"WEEK 8",56,"2013-11-21","2013-11-21"
"525","CDISCPILOT01","SV","01-701-1415",8.1,"WEEK 10 (T)",70,"2013-12-02","2013-12-02"
"526","CDISCPILOT01","SV","01-701-1415",9,"WEEK 12",84,"2013-12-21","2013-12-21"
"527","CDISCPILOT01","SV","01-701-1415",9.1,"WEEK 14 (T)",98,"2013-12-30","2013-12-30"
"528","CDISCPILOT01","SV","01-701-1415",10,"WEEK 16",112,"2014-01-14","2014-01-14"
"529","CDISCPILOT01","SV","01-701-1415",10.1,"WEEK 18 (T)",126,"2014-01-27","2014-01-27"
"530","CDISCPILOT01","SV","01-701-1415",11,"WEEK 20",140,"2014-02-10","2014-02-10"
"531","CDISCPILOT01","SV","01-701-1415",11.1,"WEEK 22 (T)",154,"2014-02-24","2014-02-24"
"532","CDISCPILOT01","SV","01-701-1415",12,"WEEK 24",168,"2014-03-10","2014-03-10"
"533","CDISCPILOT01","SV","01-701-1415",13,"WEEK 26",182,"2014-03-24","2014-03-24"
"534","CDISCPILOT01","SV","01-701-1429",1,"SCREENING 1",-7,"2013-02-25","2013-02-25"
"535","CDISCPILOT01","SV","01-701-1429",2,"SCREENING 2",-1,"2013-03-17","2013-03-17"
"536","CDISCPILOT01","SV","01-701-1429",3,"BASELINE",1,"2013-03-19","2013-03-19"
"537","CDISCPILOT01","SV","01-701-1429",4,"WEEK 2",14,"2013-04-02","2013-04-02"
"538","CDISCPILOT01","SV","01-701-1429",5,"WEEK 4",28,"2013-04-16","2013-04-16"
"539","CDISCPILOT01","SV","01-701-1429",7,"WEEK 6",42,"2013-04-30","2013-04-30"
"540","CDISCPILOT01","SV","01-701-1440",1,"SCREENING 1",-7,"2013-07-24","2013-07-24"
"541","CDISCPILOT01","SV","01-701-1440",2,"SCREENING 2",-1,"2013-08-06","2013-08-06"
"542","CDISCPILOT01","SV","01-701-1440",3,"BASELINE",1,"2013-08-08","2013-08-08"
"543","CDISCPILOT01","SV","01-701-1440",3.5,"AMBUL ECG PLACEMENT",13,"2013-08-22","2013-08-22"
"544","CDISCPILOT01","SV","01-701-1440",4,"WEEK 2",14,"2013-08-23","2013-08-23"
"545","CDISCPILOT01","SV","01-701-1440",5,"WEEK 4",28,"2013-09-04","2013-09-04"
"546","CDISCPILOT01","SV","01-701-1440",6,"AMBUL ECG REMOVAL",30,"2013-09-06","2013-09-06"
"547","CDISCPILOT01","SV","01-701-1440",7,"WEEK 6",42,"2013-09-22","2013-09-22"
"548","CDISCPILOT01","SV","01-701-1440",8,"WEEK 8",56,"2013-10-03","2013-10-03"
"549","CDISCPILOT01","SV","01-701-1440",8.1,"WEEK 10 (T)",70,"2013-10-17","2013-10-17"
"550","CDISCPILOT01","SV","01-701-1440",9,"WEEK 12",84,"2013-10-31","2013-10-31"
"551","CDISCPILOT01","SV","01-701-1440",9.1,"WEEK 14 (T)",98,"2013-11-14","2013-11-14"
"552","CDISCPILOT01","SV","01-701-1440",10,"WEEK 16",112,"2013-11-27","2013-11-27"
"553","CDISCPILOT01","SV","01-701-1440",10.1,"WEEK 18 (T)",126,"2013-12-12","2013-12-12"
"554","CDISCPILOT01","SV","01-701-1440",11,"WEEK 20",140,"2013-12-25","2013-12-25"
"555","CDISCPILOT01","SV","01-701-1440",11.1,"WEEK 22 (T)",154,"2014-01-08","2014-01-08"
"556","CDISCPILOT01","SV","01-701-1440",12,"WEEK 24",168,"2014-01-22","2014-01-22"
"557","CDISCPILOT01","SV","01-701-1440",13,"WEEK 26",182,"2014-02-05","2014-02-05"
"558","CDISCPILOT01","SV","01-701-1442",1,"SCREENING 1",-7,"2013-10-17","2013-10-17"
"559","CDISCPILOT01","SV","01-701-1442",2,"SCREENING 2",-1,"2013-10-24","2013-10-24"
"560","CDISCPILOT01","SV","01-701-1442",3,"BASELINE",1,"2013-10-26","2013-10-26"
"561","CDISCPILOT01","SV","01-701-1442",3.5,"AMBUL ECG PLACEMENT",13,"2013-11-08","2013-11-08"
"562","CDISCPILOT01","SV","01-701-1442",4,"WEEK 2",14,"2013-11-09","2013-11-09"
"563","CDISCPILOT01","SV","01-701-1442",5,"WEEK 4",28,"2013-11-23","2013-11-23"
"564","CDISCPILOT01","SV","01-701-1442",6,"AMBUL ECG REMOVAL",30,"2013-11-25","2013-11-25"
"565","CDISCPILOT01","SV","01-701-1442",7,"WEEK 6",42,"2013-12-07","2013-12-07"
"566","CDISCPILOT01","SV","01-701-1442",8,"WEEK 8",56,"2013-12-26","2013-12-26"
"567","CDISCPILOT01","SV","01-701-1442",8.1,"WEEK 10 (T)",70,"2014-01-04","2014-01-04"
"568","CDISCPILOT01","SV","01-701-1442",9,"WEEK 12",84,"2014-01-18","2014-01-18"
"569","CDISCPILOT01","SV","01-701-1442",9.1,"WEEK 14 (T)",98,"2014-02-01","2014-02-01"
"570","CDISCPILOT01","SV","01-701-1442",10,"WEEK 16",112,"2014-02-15","2014-02-15"
"571","CDISCPILOT01","SV","01-701-1442",10.1,"WEEK 18 (T)",126,"2014-03-01","2014-03-01"
"572","CDISCPILOT01","SV","01-701-1442",11,"WEEK 20",140,"2014-03-15","2014-03-15"
"573","CDISCPILOT01","SV","01-701-1442",11.1,"WEEK 22 (T)",154,"2014-03-29","2014-03-29"
"574","CDISCPILOT01","SV","01-701-1442",12,"WEEK 24",168,"2014-04-17","2014-04-17"
"575","CDISCPILOT01","SV","01-701-1442",13,"WEEK 26",182,"2014-04-26","2014-04-26"
"576","CDISCPILOT01","SV","01-701-1444",1,"SCREENING 1",-7,"2012-12-31","2012-12-31"
"577","CDISCPILOT01","SV","01-701-1444",2,"SCREENING 2",-1,"2013-01-03","2013-01-03"
"578","CDISCPILOT01","SV","01-701-1444",3,"BASELINE",1,"2013-01-05","2013-01-05"
"579","CDISCPILOT01","SV","01-701-1444",3.5,"AMBUL ECG PLACEMENT",13,"2013-01-17","2013-01-17"
"580","CDISCPILOT01","SV","01-701-1444",4,"WEEK 2",14,"2013-01-18","2013-01-18"
"581","CDISCPILOT01","SV","01-701-1444",5,"WEEK 4",28,"2013-01-31","2013-01-31"
"582","CDISCPILOT01","SV","01-701-1444",6,"AMBUL ECG REMOVAL",30,"2013-02-02","2013-02-02"
"583","CDISCPILOT01","SV","01-701-1444",7,"WEEK 6",42,"2013-02-13","2013-02-13"
"584","CDISCPILOT01","SV","01-701-1444",101,"AE FOLLOW-UP",NA,"2013-06-20","2013-06-20"
"585","CDISCPILOT01","SV","01-701-1444",201,"RETRIEVAL",168,"2013-06-20","2013-06-20"
"586","CDISCPILOT01","SV","01-702-1082",1,"SCREENING 1",-7,"2013-07-03","2013-07-03"
"587","CDISCPILOT01","SV","01-702-1082",1.1,"UNSCHEDULED 1.1",NA,"2013-07-24","2013-07-24"
"588","CDISCPILOT01","SV","01-702-1082",2,"SCREENING 2",-1,"2013-07-24","2013-07-24"
"589","CDISCPILOT01","SV","01-702-1082",3,"BASELINE",1,"2013-07-26","2013-07-26"
"590","CDISCPILOT01","SV","01-702-1082",3.5,"AMBUL ECG PLACEMENT",13,"2013-08-07","2013-08-07"
"591","CDISCPILOT01","SV","01-702-1082",4,"WEEK 2",14,"2013-08-08","2013-08-08"
"592","CDISCPILOT01","SV","01-702-1082",5,"WEEK 4",28,"2013-08-24","2013-08-24"
"593","CDISCPILOT01","SV","01-702-1082",6,"AMBUL ECG REMOVAL",30,"2013-09-04","2013-09-04"
"594","CDISCPILOT01","SV","01-702-1082",7,"WEEK 6",42,"2013-09-06","2013-09-06"
"595","CDISCPILOT01","SV","01-702-1082",8,"WEEK 8",56,"2013-09-28","2013-09-28"
"596","CDISCPILOT01","SV","01-702-1082",8.1,"WEEK 10 (T)",70,"2013-10-12","2013-10-12"
"597","CDISCPILOT01","SV","01-702-1082",9,"WEEK 12",84,"2013-11-17","2013-11-17"
"598","CDISCPILOT01","SV","01-703-1042",1,"SCREENING 1",-7,"2013-02-23","2013-02-23"
"599","CDISCPILOT01","SV","01-703-1042",1.1,"UNSCHEDULED 1.1",NA,"2013-02-21","2013-02-21"
"600","CDISCPILOT01","SV","01-703-1042",2,"SCREENING 2",-1,"2013-02-28","2013-02-28"
"601","CDISCPILOT01","SV","01-703-1042",3,"BASELINE",1,"2013-03-02","2013-03-02"
"602","CDISCPILOT01","SV","01-703-1042",3.5,"AMBUL ECG PLACEMENT",13,"2013-03-13","2013-03-13"
"603","CDISCPILOT01","SV","01-703-1042",4,"WEEK 2",14,"2013-03-14","2013-03-14"
"604","CDISCPILOT01","SV","01-703-1042",5,"WEEK 4",28,"2013-03-28","2013-03-28"
"605","CDISCPILOT01","SV","01-703-1042",6,"AMBUL ECG REMOVAL",30,"2013-03-30","2013-03-30"
"606","CDISCPILOT01","SV","01-703-1042",7,"WEEK 6",42,"2013-04-13","2013-04-13"
"607","CDISCPILOT01","SV","01-703-1042",8,"WEEK 8",56,"2013-04-27","2013-04-27"
"608","CDISCPILOT01","SV","01-703-1042",8.1,"WEEK 10 (T)",70,"2013-05-11","2013-05-11"
"609","CDISCPILOT01","SV","01-703-1042",9,"WEEK 12",84,"2013-05-25","2013-05-25"
"610","CDISCPILOT01","SV","01-703-1042",9.1,"WEEK 14 (T)",98,"2013-06-08","2013-06-08"
"611","CDISCPILOT01","SV","01-703-1042",10,"WEEK 16",112,"2013-06-22","2013-06-22"
"612","CDISCPILOT01","SV","01-703-1042",10.1,"WEEK 18 (T)",126,"2013-07-06","2013-07-06"
"613","CDISCPILOT01","SV","01-703-1042",11,"WEEK 20",140,"2013-07-20","2013-07-20"
"614","CDISCPILOT01","SV","01-703-1042",11.1,"WEEK 22 (T)",154,"2013-08-03","2013-08-03"
"615","CDISCPILOT01","SV","01-703-1042",12,"WEEK 24",168,"2013-08-09","2013-08-09"
"616","CDISCPILOT01","SV","01-703-1042",13,"WEEK 26",182,"2013-08-31","2013-08-31"
"617","CDISCPILOT01","SV","01-703-1076",1,"SCREENING 1",-7,"2013-10-17","2013-10-17"
"618","CDISCPILOT01","SV","01-703-1076",2,"SCREENING 2",-1,"2013-10-23","2013-10-23"
"619","CDISCPILOT01","SV","01-703-1076",3,"BASELINE",1,"2013-10-25","2013-10-25"
"620","CDISCPILOT01","SV","01-703-1076",3.5,"AMBUL ECG PLACEMENT",13,"2013-11-05","2013-11-05"
"621","CDISCPILOT01","SV","01-703-1076",4,"WEEK 2",14,"2013-11-06","2013-11-06"
"622","CDISCPILOT01","SV","01-703-1076",5,"WEEK 4",28,"2013-11-20","2013-11-20"
"623","CDISCPILOT01","SV","01-703-1076",6,"AMBUL ECG REMOVAL",30,"2013-11-22","2013-11-22"
"624","CDISCPILOT01","SV","01-703-1076",7,"WEEK 6",42,"2013-12-04","2013-12-04"
"625","CDISCPILOT01","SV","01-703-1076",8,"WEEK 8",56,"2013-12-17","2013-12-17"
"626","CDISCPILOT01","SV","01-703-1076",9,"WEEK 12",84,"2013-12-24","2013-12-24"
"627","CDISCPILOT01","SV","01-703-1076",101,"AE FOLLOW-UP",NA,"2014-01-21","2014-01-21"
"628","CDISCPILOT01","SV","01-703-1086",1,"SCREENING 1",-7,"2012-08-22","2012-08-22"
"629","CDISCPILOT01","SV","01-703-1086",1.1,"UNSCHEDULED 1.1",NA,"2012-08-31","2012-08-31"
"630","CDISCPILOT01","SV","01-703-1086",2,"SCREENING 2",-1,"2012-08-31","2012-08-31"
"631","CDISCPILOT01","SV","01-703-1086",3,"BASELINE",1,"2012-09-02","2012-09-02"
"632","CDISCPILOT01","SV","01-703-1086",3.5,"AMBUL ECG PLACEMENT",13,"2012-09-15","2012-09-15"
"633","CDISCPILOT01","SV","01-703-1086",4,"WEEK 2",14,"2012-09-16","2012-09-16"
"634","CDISCPILOT01","SV","01-703-1086",5,"WEEK 4",28,"2012-09-30","2012-09-30"
"635","CDISCPILOT01","SV","01-703-1086",6,"AMBUL ECG REMOVAL",30,"2012-10-02","2012-10-02"
"636","CDISCPILOT01","SV","01-703-1086",7,"WEEK 6",42,"2012-10-13","2012-10-13"
"637","CDISCPILOT01","SV","01-703-1086",8,"WEEK 8",56,"2012-10-27","2012-10-27"
"638","CDISCPILOT01","SV","01-703-1086",8.1,"WEEK 10 (T)",70,"2012-11-10","2012-11-10"
"639","CDISCPILOT01","SV","01-703-1086",9,"WEEK 12",84,"2012-11-27","2012-11-27"
"640","CDISCPILOT01","SV","01-703-1086",9.1,"WEEK 14 (T)",98,"2012-12-11","2012-12-11"
"641","CDISCPILOT01","SV","01-703-1086",10,"WEEK 16",112,"2012-12-24","2012-12-24"
"642","CDISCPILOT01","SV","01-703-1086",101,"AE FOLLOW-UP",NA,"2013-01-02","2013-01-02"
"643","CDISCPILOT01","SV","01-703-1086",201,"RETRIEVAL",168,"2013-03-26","2013-03-26"
"644","CDISCPILOT01","SV","01-703-1096",1,"SCREENING 1",-7,"2012-12-19","2012-12-19"
"645","CDISCPILOT01","SV","01-703-1096",1.1,"UNSCHEDULED 1.1",NA,"2012-12-19","2012-12-19"
"646","CDISCPILOT01","SV","01-703-1096",1.2,"UNSCHEDULED 1.2",NA,"2012-12-29","2012-12-29"
"647","CDISCPILOT01","SV","01-703-1096",1.3,"UNSCHEDULED 1.3",NA,"2013-01-23","2013-01-23"
"648","CDISCPILOT01","SV","01-703-1096",2,"SCREENING 2",-1,"2013-01-23","2013-01-23"
"649","CDISCPILOT01","SV","01-703-1096",3,"BASELINE",1,"2013-01-25","2013-01-25"
"650","CDISCPILOT01","SV","01-703-1096",3.5,"AMBUL ECG PLACEMENT",13,"2013-02-08","2013-02-08"
"651","CDISCPILOT01","SV","01-703-1096",4,"WEEK 2",14,"2013-02-09","2013-02-09"
"652","CDISCPILOT01","SV","01-703-1096",5,"WEEK 4",28,"2013-02-23","2013-02-23"
"653","CDISCPILOT01","SV","01-703-1096",6,"AMBUL ECG REMOVAL",30,"2013-02-27","2013-02-27"
"654","CDISCPILOT01","SV","01-703-1096",7,"WEEK 6",42,"2013-03-29","2013-03-29"
"655","CDISCPILOT01","SV","01-703-1100",1,"SCREENING 1",-7,"2013-02-28","2013-02-28"
"656","CDISCPILOT01","SV","01-703-1100",1.1,"UNSCHEDULED 1.1",NA,"2012-12-27","2012-12-27"
"657","CDISCPILOT01","SV","01-703-1100",1.2,"UNSCHEDULED 1.2",NA,"2013-02-28","2013-02-28"
"658","CDISCPILOT01","SV","01-703-1100",2,"SCREENING 2",-1,"2013-03-11","2013-03-11"
"659","CDISCPILOT01","SV","01-703-1100",3,"BASELINE",1,"2013-03-13","2013-03-13"
"660","CDISCPILOT01","SV","01-703-1100",3.5,"AMBUL ECG PLACEMENT",13,"2013-03-28","2013-03-28"
"661","CDISCPILOT01","SV","01-703-1100",4,"WEEK 2",14,"2013-03-29","2013-03-29"
"662","CDISCPILOT01","SV","01-703-1100",5,"WEEK 4",28,"2013-04-12","2013-04-12"
"663","CDISCPILOT01","SV","01-703-1100",6,"AMBUL ECG REMOVAL",30,"2013-04-14","2013-04-14"
"664","CDISCPILOT01","SV","01-703-1100",7,"WEEK 6",42,"2013-04-24","2013-04-24"
"665","CDISCPILOT01","SV","01-703-1100",8,"WEEK 8",56,"2013-05-08","2013-05-08"
"666","CDISCPILOT01","SV","01-703-1100",8.1,"WEEK 10 (T)",70,"2013-05-22","2013-05-22"
"667","CDISCPILOT01","SV","01-703-1100",9,"WEEK 12",84,"2013-06-05","2013-06-05"
"668","CDISCPILOT01","SV","01-703-1100",9.1,"WEEK 14 (T)",98,"2013-06-19","2013-06-19"
"669","CDISCPILOT01","SV","01-703-1100",10,"WEEK 16",112,"2013-07-03","2013-07-03"
"670","CDISCPILOT01","SV","01-703-1100",10.1,"WEEK 18 (T)",126,"2013-07-19","2013-07-19"
"671","CDISCPILOT01","SV","01-703-1100",11,"WEEK 20",140,"2013-07-31","2013-07-31"
"672","CDISCPILOT01","SV","01-703-1100",11.1,"WEEK 22 (T)",154,"2013-08-09","2013-08-09"
"673","CDISCPILOT01","SV","01-703-1100",12,"WEEK 24",168,"2013-08-28","2013-08-28"
"674","CDISCPILOT01","SV","01-703-1100",13,"WEEK 26",182,"2013-09-14","2013-09-14"
"675","CDISCPILOT01","SV","01-703-1119",1,"SCREENING 1",-7,"2013-02-02","2013-02-02"
"676","CDISCPILOT01","SV","01-703-1119",1.1,"UNSCHEDULED 1.1",NA,"2013-02-13","2013-02-13"
"677","CDISCPILOT01","SV","01-703-1119",1.2,"UNSCHEDULED 1.2",NA,"2013-02-16","2013-02-16"
"678","CDISCPILOT01","SV","01-703-1119",1.3,"UNSCHEDULED 1.3",NA,"2013-02-14","2013-02-14"
"679","CDISCPILOT01","SV","01-703-1119",2,"SCREENING 2",-1,"2013-02-14","2013-02-14"
"680","CDISCPILOT01","SV","01-703-1119",3,"BASELINE",1,"2013-02-20","2013-02-20"
"681","CDISCPILOT01","SV","01-703-1119",3.5,"AMBUL ECG PLACEMENT",13,"2013-03-09","2013-03-09"
"682","CDISCPILOT01","SV","01-703-1119",4,"WEEK 2",14,"2013-03-10","2013-03-10"
"683","CDISCPILOT01","SV","01-703-1119",5,"WEEK 4",28,"2013-03-21","2013-03-21"
"684","CDISCPILOT01","SV","01-703-1119",6,"AMBUL ECG REMOVAL",30,"2013-03-23","2013-03-23"
"685","CDISCPILOT01","SV","01-703-1119",7,"WEEK 6",42,"2013-04-04","2013-04-04"
"686","CDISCPILOT01","SV","01-703-1119",8,"WEEK 8",56,"2013-04-19","2013-04-19"
"687","CDISCPILOT01","SV","01-703-1119",8.1,"WEEK 10 (T)",70,"2013-05-03","2013-05-03"
"688","CDISCPILOT01","SV","01-703-1119",9,"WEEK 12",84,"2013-05-17","2013-05-17"
"689","CDISCPILOT01","SV","01-703-1119",9.1,"WEEK 14 (T)",98,"2013-05-31","2013-05-31"
"690","CDISCPILOT01","SV","01-703-1119",10,"WEEK 16",112,"2013-06-13","2013-06-13"
"691","CDISCPILOT01","SV","01-703-1119",101,"AE FOLLOW-UP",NA,"2013-07-20","2013-07-20"
"692","CDISCPILOT01","SV","01-703-1119",201,"RETRIEVAL",168,"2013-08-24","2013-08-24"
"693","CDISCPILOT01","SV","01-703-1175",1,"SCREENING 1",-7,"2013-12-13","2013-12-13"
"694","CDISCPILOT01","SV","01-703-1175",2,"SCREENING 2",-1,"2013-12-18","2013-12-18"
"695","CDISCPILOT01","SV","01-703-1175",3,"BASELINE",1,"2013-12-20","2013-12-20"
"696","CDISCPILOT01","SV","01-703-1175",4,"WEEK 2",14,"2013-12-31","2013-12-31"
"697","CDISCPILOT01","SV","01-703-1175",101,"AE FOLLOW-UP",NA,"2013-12-31","2013-12-31"
"698","CDISCPILOT01","SV","01-703-1182",1,"SCREENING 1",-7,"2013-10-08","2013-10-08"
"699","CDISCPILOT01","SV","01-703-1182",2,"SCREENING 2",-1,"2013-10-15","2013-10-15"
"700","CDISCPILOT01","SV","01-703-1182",3,"BASELINE",1,"2013-10-17","2013-10-17"
"701","CDISCPILOT01","SV","01-703-1182",3.5,"AMBUL ECG PLACEMENT",13,"2013-10-30","2013-10-30"
"702","CDISCPILOT01","SV","01-703-1182",4,"WEEK 2",14,"2013-10-31","2013-10-31"
"703","CDISCPILOT01","SV","01-703-1182",5,"WEEK 4",28,"2013-11-19","2013-11-19"
"704","CDISCPILOT01","SV","01-703-1182",6,"AMBUL ECG REMOVAL",30,"2013-11-20","2013-11-20"
"705","CDISCPILOT01","SV","01-703-1182",7,"WEEK 6",42,"2013-11-28","2013-11-28"
"706","CDISCPILOT01","SV","01-703-1182",8,"WEEK 8",56,"2013-12-12","2013-12-12"
"707","CDISCPILOT01","SV","01-703-1182",101,"AE FOLLOW-UP",NA,"2014-01-14","2014-01-14"
"708","CDISCPILOT01","SV","01-703-1197",1,"SCREENING 1",-7,"2013-06-01","2013-06-01"
"709","CDISCPILOT01","SV","01-703-1197",1.1,"UNSCHEDULED 1.1",NA,"2013-06-01","2013-06-01"
"710","CDISCPILOT01","SV","01-703-1197",2,"SCREENING 2",-1,"2013-06-14","2013-06-14"
"711","CDISCPILOT01","SV","01-703-1197",3,"BASELINE",1,"2013-06-16","2013-06-16"
"712","CDISCPILOT01","SV","01-703-1197",4,"WEEK 2",14,"2013-07-22","2013-07-22"
"713","CDISCPILOT01","SV","01-703-1210",1,"SCREENING 1",-7,"2013-03-08","2013-03-08"
"714","CDISCPILOT01","SV","01-703-1210",2,"SCREENING 2",-1,"2013-03-14","2013-03-14"
"715","CDISCPILOT01","SV","01-703-1210",3,"BASELINE",1,"2013-03-16","2013-03-16"
"716","CDISCPILOT01","SV","01-703-1210",3.5,"AMBUL ECG PLACEMENT",13,"2013-03-29","2013-03-29"
"717","CDISCPILOT01","SV","01-703-1210",4,"WEEK 2",14,"2013-03-30","2013-03-30"
"718","CDISCPILOT01","SV","01-703-1210",5,"WEEK 4",28,"2013-04-12","2013-04-12"
"719","CDISCPILOT01","SV","01-703-1210",6,"AMBUL ECG REMOVAL",30,"2013-04-14","2013-04-14"
"720","CDISCPILOT01","SV","01-703-1210",7,"WEEK 6",42,"2013-04-28","2013-04-28"
"721","CDISCPILOT01","SV","01-703-1210",8,"WEEK 8",56,"2013-05-10","2013-05-10"
"722","CDISCPILOT01","SV","01-703-1210",8.1,"WEEK 10 (T)",70,"2013-05-24","2013-05-24"
"723","CDISCPILOT01","SV","01-703-1210",9,"WEEK 12",84,"2013-06-07","2013-06-07"
"724","CDISCPILOT01","SV","01-703-1210",9.1,"WEEK 14 (T)",98,"2013-06-21","2013-06-21"
"725","CDISCPILOT01","SV","01-703-1210",10,"WEEK 16",112,"2013-07-05","2013-07-05"
"726","CDISCPILOT01","SV","01-703-1210",10.1,"WEEK 18 (T)",126,"2013-07-19","2013-07-19"
"727","CDISCPILOT01","SV","01-703-1210",11,"WEEK 20",140,"2013-07-27","2013-07-27"
"728","CDISCPILOT01","SV","01-703-1210",11.1,"WEEK 22 (T)",154,"2013-08-09","2013-08-09"
"729","CDISCPILOT01","SV","01-703-1210",12,"WEEK 24",168,"2013-08-24","2013-08-24"
"730","CDISCPILOT01","SV","01-703-1210",13,"WEEK 26",182,"2013-09-06","2013-09-06"
"731","CDISCPILOT01","SV","01-703-1258",1,"SCREENING 1",-7,"2012-07-10","2012-07-10"
"732","CDISCPILOT01","SV","01-703-1258",2,"SCREENING 2",-1,"2012-07-18","2012-07-18"
"733","CDISCPILOT01","SV","01-703-1258",3,"BASELINE",1,"2012-07-20","2012-07-20"
"734","CDISCPILOT01","SV","01-703-1258",3.5,"AMBUL ECG PLACEMENT",13,"2012-07-31","2012-07-31"
"735","CDISCPILOT01","SV","01-703-1258",4,"WEEK 2",14,"2012-08-01","2012-08-01"
"736","CDISCPILOT01","SV","01-703-1258",5,"WEEK 4",28,"2012-08-17","2012-08-17"
"737","CDISCPILOT01","SV","01-703-1258",6,"AMBUL ECG REMOVAL",30,"2012-08-19","2012-08-19"
"738","CDISCPILOT01","SV","01-703-1258",7,"WEEK 6",42,"2012-09-04","2012-09-04"
"739","CDISCPILOT01","SV","01-703-1258",8,"WEEK 8",56,"2012-09-14","2012-09-14"
"740","CDISCPILOT01","SV","01-703-1258",8.1,"WEEK 10 (T)",70,"2012-09-28","2012-09-28"
"741","CDISCPILOT01","SV","01-703-1258",9,"WEEK 12",84,"2012-10-09","2012-10-09"
"742","CDISCPILOT01","SV","01-703-1258",9.1,"WEEK 14 (T)",98,"2012-10-23","2012-10-23"
"743","CDISCPILOT01","SV","01-703-1258",10,"WEEK 16",112,"2012-11-05","2012-11-05"
"744","CDISCPILOT01","SV","01-703-1258",10.1,"WEEK 18 (T)",126,"2012-11-19","2012-11-19"
"745","CDISCPILOT01","SV","01-703-1258",11,"WEEK 20",140,"2012-12-03","2012-12-03"
"746","CDISCPILOT01","SV","01-703-1258",11.1,"WEEK 22 (T)",154,"2012-12-20","2012-12-20"
"747","CDISCPILOT01","SV","01-703-1258",12,"WEEK 24",168,"2012-12-31","2012-12-31"
"748","CDISCPILOT01","SV","01-703-1258",13,"WEEK 26",182,"2013-01-21","2013-01-21"
"749","CDISCPILOT01","SV","01-703-1258",101,"AE FOLLOW-UP",NA,"2013-01-28","2013-01-28"
"750","CDISCPILOT01","SV","01-703-1279",1,"SCREENING 1",-7,"2013-04-27","2013-04-27"
"751","CDISCPILOT01","SV","01-703-1279",2,"SCREENING 2",-1,"2013-05-11","2013-05-11"
"752","CDISCPILOT01","SV","01-703-1279",3,"BASELINE",1,"2013-05-13","2013-05-13"
"753","CDISCPILOT01","SV","01-703-1279",4,"WEEK 2",14,"2013-06-22","2013-06-22"
"754","CDISCPILOT01","SV","01-703-1295",1,"SCREENING 1",-7,"2013-10-24","2013-10-24"
"755","CDISCPILOT01","SV","01-703-1295",1.1,"UNSCHEDULED 1.1",NA,"2013-11-04","2013-11-04"
"756","CDISCPILOT01","SV","01-703-1295",2,"SCREENING 2",-1,"2013-11-19","2013-11-19"
"757","CDISCPILOT01","SV","01-703-1295",3,"BASELINE",1,"2013-11-21","2013-11-21"
"758","CDISCPILOT01","SV","01-703-1295",3.5,"AMBUL ECG PLACEMENT",13,"2013-12-04","2013-12-04"
"759","CDISCPILOT01","SV","01-703-1295",4,"WEEK 2",14,"2013-12-05","2013-12-05"
"760","CDISCPILOT01","SV","01-703-1295",5,"WEEK 4",28,"2013-12-18","2013-12-18"
"761","CDISCPILOT01","SV","01-703-1295",6,"AMBUL ECG REMOVAL",30,"2013-12-20","2013-12-20"
"762","CDISCPILOT01","SV","01-703-1295",7,"WEEK 6",42,"2014-01-01","2014-01-01"
"763","CDISCPILOT01","SV","01-703-1295",8,"WEEK 8",56,"2014-01-15","2014-01-15"
"764","CDISCPILOT01","SV","01-703-1295",8.1,"WEEK 10 (T)",70,"2014-01-29","2014-01-29"
"765","CDISCPILOT01","SV","01-703-1295",9,"WEEK 12",84,"2014-02-18","2014-02-18"
"766","CDISCPILOT01","SV","01-703-1295",9.1,"WEEK 14 (T)",98,"2014-03-04","2014-03-04"
"767","CDISCPILOT01","SV","01-703-1295",10,"WEEK 16",112,"2014-03-13","2014-03-13"
"768","CDISCPILOT01","SV","01-703-1295",11,"WEEK 20",140,"2014-05-19","2014-05-19"
"769","CDISCPILOT01","SV","01-703-1299",1,"SCREENING 1",-7,"2012-09-07","2012-09-07"
"770","CDISCPILOT01","SV","01-703-1299",2,"SCREENING 2",-1,"2012-09-10","2012-09-10"
"771","CDISCPILOT01","SV","01-703-1299",3,"BASELINE",1,"2012-09-12","2012-09-12"
"772","CDISCPILOT01","SV","01-703-1299",3.5,"AMBUL ECG PLACEMENT",13,"2012-09-27","2012-09-27"
"773","CDISCPILOT01","SV","01-703-1299",4,"WEEK 2",14,"2012-09-28","2012-09-28"
"774","CDISCPILOT01","SV","01-703-1299",5,"WEEK 4",28,"2012-10-10","2012-10-10"
"775","CDISCPILOT01","SV","01-703-1299",6,"AMBUL ECG REMOVAL",30,"2012-10-12","2012-10-12"
"776","CDISCPILOT01","SV","01-703-1299",7,"WEEK 6",42,"2012-10-24","2012-10-24"
"777","CDISCPILOT01","SV","01-703-1299",8,"WEEK 8",56,"2012-11-07","2012-11-07"
"778","CDISCPILOT01","SV","01-703-1299",8.1,"WEEK 10 (T)",70,"2012-11-21","2012-11-21"
"779","CDISCPILOT01","SV","01-703-1299",9,"WEEK 12",84,"2012-12-05","2012-12-05"
"780","CDISCPILOT01","SV","01-703-1299",9.1,"WEEK 14 (T)",98,"2012-12-19","2012-12-19"
"781","CDISCPILOT01","SV","01-703-1299",10,"WEEK 16",112,"2013-01-02","2013-01-02"
"782","CDISCPILOT01","SV","01-703-1299",10.1,"WEEK 18 (T)",126,"2013-01-16","2013-01-16"
"783","CDISCPILOT01","SV","01-703-1299",11,"WEEK 20",140,"2013-01-30","2013-01-30"
"784","CDISCPILOT01","SV","01-703-1299",11.1,"WEEK 22 (T)",154,"2013-02-13","2013-02-13"
"785","CDISCPILOT01","SV","01-703-1299",12,"WEEK 24",168,"2013-03-01","2013-03-01"
"786","CDISCPILOT01","SV","01-703-1299",13,"WEEK 26",182,"2013-03-13","2013-03-13"
"787","CDISCPILOT01","SV","01-703-1299",13.1,"UNSCHEDULED 13.1",NA,"2013-03-27","2013-03-27"
"788","CDISCPILOT01","SV","01-703-1335",1,"SCREENING 1",-7,"2014-02-28","2014-02-28"
"789","CDISCPILOT01","SV","01-703-1335",1.1,"UNSCHEDULED 1.1",NA,"2014-02-21","2014-02-21"
"790","CDISCPILOT01","SV","01-703-1335",2,"SCREENING 2",-1,"2014-03-15","2014-03-15"
"791","CDISCPILOT01","SV","01-703-1335",3,"BASELINE",1,"2014-03-17","2014-03-17"
"792","CDISCPILOT01","SV","01-703-1335",3.5,"AMBUL ECG PLACEMENT",13,"2014-03-30","2014-03-30"
"793","CDISCPILOT01","SV","01-703-1335",4,"WEEK 2",14,"2014-03-31","2014-03-31"
"794","CDISCPILOT01","SV","01-703-1335",5,"WEEK 4",28,"2014-04-13","2014-04-13"
"795","CDISCPILOT01","SV","01-703-1335",6,"AMBUL ECG REMOVAL",30,"2014-04-15","2014-04-15"
"796","CDISCPILOT01","SV","01-703-1335",7,"WEEK 6",42,"2014-05-24","2014-05-24"
"797","CDISCPILOT01","SV","01-703-1379",1,"SCREENING 1",-7,"2013-09-12","2013-09-12"
"798","CDISCPILOT01","SV","01-703-1379",2,"SCREENING 2",-1,"2013-09-20","2013-09-20"
"799","CDISCPILOT01","SV","01-703-1379",3,"BASELINE",1,"2013-09-22","2013-09-22"
"800","CDISCPILOT01","SV","01-703-1379",3.5,"AMBUL ECG PLACEMENT",13,"2013-10-06","2013-10-06"
"801","CDISCPILOT01","SV","01-703-1379",4,"WEEK 2",14,"2013-10-07","2013-10-07"
"802","CDISCPILOT01","SV","01-703-1379",5,"WEEK 4",28,"2013-10-19","2013-10-19"
"803","CDISCPILOT01","SV","01-703-1379",6,"AMBUL ECG REMOVAL",30,"2013-10-21","2013-10-21"
"804","CDISCPILOT01","SV","01-703-1379",7,"WEEK 6",42,"2013-11-08","2013-11-08"
"805","CDISCPILOT01","SV","01-703-1379",8,"WEEK 8",56,"2013-11-17","2013-11-17"
"806","CDISCPILOT01","SV","01-703-1379",8.1,"WEEK 10 (T)",70,"2013-12-01","2013-12-01"
"807","CDISCPILOT01","SV","01-703-1379",9,"WEEK 12",84,"2013-12-15","2013-12-15"
"808","CDISCPILOT01","SV","01-703-1379",9.1,"WEEK 14 (T)",98,"2013-12-29","2013-12-29"
"809","CDISCPILOT01","SV","01-703-1379",10,"WEEK 16",112,"2014-01-11","2014-01-11"
"810","CDISCPILOT01","SV","01-703-1379",10.1,"WEEK 18 (T)",126,"2014-01-25","2014-01-25"
"811","CDISCPILOT01","SV","01-703-1379",11,"WEEK 20",140,"2014-02-09","2014-02-09"
"812","CDISCPILOT01","SV","01-703-1379",11.1,"WEEK 22 (T)",154,"2014-02-23","2014-02-23"
"813","CDISCPILOT01","SV","01-703-1379",11.2,"UNSCHEDULED 11.2",NA,"2014-02-23","2014-02-23"
"814","CDISCPILOT01","SV","01-703-1379",12,"WEEK 24",168,"2014-03-08","2014-03-08"
"815","CDISCPILOT01","SV","01-703-1379",13,"WEEK 26",182,"2014-03-21","2014-03-21"
"816","CDISCPILOT01","SV","01-703-1396",1,"SCREENING 1",-7,"2014-02-09","2014-02-09"
"817","CDISCPILOT01","SV","01-703-1403",1,"SCREENING 1",-7,"2012-12-05","2012-12-05"
"818","CDISCPILOT01","SV","01-703-1403",2,"SCREENING 2",-1,"2012-12-10","2012-12-10"
"819","CDISCPILOT01","SV","01-703-1403",3,"BASELINE",1,"2012-12-12","2012-12-12"
"820","CDISCPILOT01","SV","01-703-1403",4,"WEEK 2",14,"2012-12-19","2012-12-19"
"821","CDISCPILOT01","SV","01-703-1403",101,"AE FOLLOW-UP",NA,"2013-01-08","2013-01-08"
"822","CDISCPILOT01","SV","01-703-1439",1,"SCREENING 1",-7,"2014-03-04","2014-03-04"
"823","CDISCPILOT01","SV","01-703-1439",2,"SCREENING 2",-1,"2014-03-10","2014-03-10"
"824","CDISCPILOT01","SV","01-703-1439",3,"BASELINE",1,"2014-03-12","2014-03-12"
"825","CDISCPILOT01","SV","01-703-1439",3.5,"AMBUL ECG PLACEMENT",13,"2014-03-25","2014-03-25"
"826","CDISCPILOT01","SV","01-703-1439",4,"WEEK 2",14,"2014-03-26","2014-03-26"
"827","CDISCPILOT01","SV","01-703-1439",5,"WEEK 4",28,"2014-04-08","2014-04-08"
"828","CDISCPILOT01","SV","01-703-1439",6,"AMBUL ECG REMOVAL",30,"2014-04-10","2014-04-10"
"829","CDISCPILOT01","SV","01-703-1439",7,"WEEK 6",42,"2014-04-21","2014-04-21"
"830","CDISCPILOT01","SV","01-703-1439",8,"WEEK 8",56,"2014-05-05","2014-05-05"
"831","CDISCPILOT01","SV","01-703-1439",8.1,"WEEK 10 (T)",70,"2014-05-19","2014-05-19"
"832","CDISCPILOT01","SV","01-703-1439",9,"WEEK 12",84,"2014-06-02","2014-06-02"
"833","CDISCPILOT01","SV","01-703-1439",9.1,"WEEK 14 (T)",98,"2014-06-16","2014-06-16"
"834","CDISCPILOT01","SV","01-703-1439",10,"WEEK 16",112,"2014-06-30","2014-06-30"
"835","CDISCPILOT01","SV","01-703-1439",10.1,"WEEK 18 (T)",126,"2014-07-16","2014-07-16"
"836","CDISCPILOT01","SV","01-703-1439",11,"WEEK 20",140,"2014-07-29","2014-07-29"
"837","CDISCPILOT01","SV","01-703-1439",11.1,"WEEK 22 (T)",154,"2014-08-06","2014-08-06"
"838","CDISCPILOT01","SV","01-703-1439",12,"WEEK 24",168,"2014-08-28","2014-08-28"
"839","CDISCPILOT01","SV","01-703-1439",13,"WEEK 26",182,"2014-09-11","2014-09-11"
"840","CDISCPILOT01","SV","01-704-1008",1,"SCREENING 1",-7,"2013-01-06","2013-01-06"
"841","CDISCPILOT01","SV","01-704-1008",1.1,"UNSCHEDULED 1.1",NA,"2013-01-06","2013-01-06"
"842","CDISCPILOT01","SV","01-704-1008",2,"SCREENING 2",-1,"2013-01-11","2013-01-11"
"843","CDISCPILOT01","SV","01-704-1008",3,"BASELINE",1,"2013-01-13","2013-01-13"
"844","CDISCPILOT01","SV","01-704-1008",3.5,"AMBUL ECG PLACEMENT",13,"2013-01-27","2013-01-27"
"845","CDISCPILOT01","SV","01-704-1008",4,"WEEK 2",14,"2013-01-28","2013-01-28"
"846","CDISCPILOT01","SV","01-704-1008",5,"WEEK 4",28,"2013-02-09","2013-02-09"
"847","CDISCPILOT01","SV","01-704-1008",6,"AMBUL ECG REMOVAL",30,"2013-02-11","2013-02-11"
"848","CDISCPILOT01","SV","01-704-1008",7,"WEEK 6",42,"2013-02-25","2013-02-25"
"849","CDISCPILOT01","SV","01-704-1009",1,"SCREENING 1",-7,"2013-08-20","2013-08-20"
"850","CDISCPILOT01","SV","01-704-1009",2,"SCREENING 2",-1,"2013-08-24","2013-08-24"
"851","CDISCPILOT01","SV","01-704-1009",3,"BASELINE",1,"2013-08-27","2013-08-27"
"852","CDISCPILOT01","SV","01-704-1009",3.5,"AMBUL ECG PLACEMENT",13,"2013-09-13","2013-09-13"
"853","CDISCPILOT01","SV","01-704-1009",4,"WEEK 2",14,"2013-09-14","2013-09-14"
"854","CDISCPILOT01","SV","01-704-1009",5,"WEEK 4",28,"2013-10-02","2013-10-02"
"855","CDISCPILOT01","SV","01-704-1010",1,"SCREENING 1",-7,"2014-02-08","2014-02-08"
"856","CDISCPILOT01","SV","01-704-1010",2,"SCREENING 2",-1,"2014-02-19","2014-02-19"
"857","CDISCPILOT01","SV","01-704-1010",3,"BASELINE",1,"2014-02-21","2014-02-21"
"858","CDISCPILOT01","SV","01-704-1010",3.5,"AMBUL ECG PLACEMENT",13,"2014-03-07","2014-03-07"
"859","CDISCPILOT01","SV","01-704-1010",4,"WEEK 2",14,"2014-03-08","2014-03-08"
"860","CDISCPILOT01","SV","01-704-1010",5,"WEEK 4",28,"2014-03-23","2014-03-23"
"861","CDISCPILOT01","SV","01-704-1010",6,"AMBUL ECG REMOVAL",30,"2014-03-26","2014-03-26"
"862","CDISCPILOT01","SV","01-704-1010",7,"WEEK 6",42,"2014-04-11","2014-04-11"
"863","CDISCPILOT01","SV","01-704-1010",8,"WEEK 8",56,"2014-04-24","2014-04-24"
"864","CDISCPILOT01","SV","01-704-1010",8.1,"WEEK 10 (T)",70,"2014-05-08","2014-05-08"
"865","CDISCPILOT01","SV","01-704-1010",9,"WEEK 12",84,"2014-05-16","2014-05-16"
"866","CDISCPILOT01","SV","01-704-1010",9.1,"WEEK 14 (T)",98,"2014-05-30","2014-05-30"
"867","CDISCPILOT01","SV","01-704-1010",9.2,"UNSCHEDULED 9.2",NA,"2014-05-30","2014-05-30"
"868","CDISCPILOT01","SV","01-704-1010",10,"WEEK 16",112,"2014-06-13","2014-06-13"
"869","CDISCPILOT01","SV","01-704-1010",10.1,"WEEK 18 (T)",126,"2014-06-27","2014-06-27"
"870","CDISCPILOT01","SV","01-704-1010",11,"WEEK 20",140,"2014-07-09","2014-07-09"
"871","CDISCPILOT01","SV","01-704-1017",1,"SCREENING 1",-7,"2013-09-20","2013-09-20"
"872","CDISCPILOT01","SV","01-704-1017",2,"SCREENING 2",-1,"2013-09-27","2013-09-27"
"873","CDISCPILOT01","SV","01-704-1017",3,"BASELINE",1,"2013-10-06","2013-10-06"
"874","CDISCPILOT01","SV","01-704-1017",3.5,"AMBUL ECG PLACEMENT",13,"2013-10-18","2013-10-18"
"875","CDISCPILOT01","SV","01-704-1017",4,"WEEK 2",14,"2013-10-19","2013-10-19"
"876","CDISCPILOT01","SV","01-704-1017",5,"WEEK 4",28,"2013-11-09","2013-11-09"
"877","CDISCPILOT01","SV","01-704-1017",6,"AMBUL ECG REMOVAL",30,"2013-11-11","2013-11-11"
"878","CDISCPILOT01","SV","01-704-1017",7,"WEEK 6",42,"2013-11-24","2013-11-24"
"879","CDISCPILOT01","SV","01-704-1017",101,"AE FOLLOW-UP",NA,"2013-12-06","2013-12-06"
"880","CDISCPILOT01","SV","01-704-1025",1,"SCREENING 1",-7,"2013-09-18","2013-09-18"
"881","CDISCPILOT01","SV","01-704-1025",2,"SCREENING 2",-1,"2013-09-25","2013-09-25"
"882","CDISCPILOT01","SV","01-704-1025",3,"BASELINE",1,"2013-09-27","2013-09-27"
"883","CDISCPILOT01","SV","01-704-1025",3.5,"AMBUL ECG PLACEMENT",13,"2013-10-10","2013-10-10"
"884","CDISCPILOT01","SV","01-704-1025",4,"WEEK 2",14,"2013-10-11","2013-10-11"
"885","CDISCPILOT01","SV","01-704-1025",5,"WEEK 4",28,"2013-10-25","2013-10-25"
"886","CDISCPILOT01","SV","01-704-1025",5.1,"UNSCHEDULED 5.1",NA,"2013-10-28","2013-10-28"
"887","CDISCPILOT01","SV","01-704-1025",6,"AMBUL ECG REMOVAL",30,"2013-11-29","2013-11-29"
"888","CDISCPILOT01","SV","01-704-1065",1,"SCREENING 1",-7,"2013-10-17","2013-10-17"
"889","CDISCPILOT01","SV","01-704-1065",2,"SCREENING 2",-1,"2013-10-22","2013-10-22"
"890","CDISCPILOT01","SV","01-704-1065",3,"BASELINE",1,"2013-10-24","2013-10-24"
"891","CDISCPILOT01","SV","01-704-1065",3.5,"AMBUL ECG PLACEMENT",13,"2013-11-06","2013-11-06"
"892","CDISCPILOT01","SV","01-704-1065",4,"WEEK 2",14,"2013-11-07","2013-11-07"
"893","CDISCPILOT01","SV","01-704-1065",5,"WEEK 4",28,"2013-11-25","2013-11-25"
"894","CDISCPILOT01","SV","01-704-1065",6,"AMBUL ECG REMOVAL",30,"2013-11-27","2013-11-27"
"895","CDISCPILOT01","SV","01-704-1065",7,"WEEK 6",42,"2013-12-06","2013-12-06"
"896","CDISCPILOT01","SV","01-704-1065",8,"WEEK 8",56,"2013-12-20","2013-12-20"
"897","CDISCPILOT01","SV","01-704-1065",9,"WEEK 12",84,"2013-12-24","2013-12-24"
"898","CDISCPILOT01","SV","01-704-1065",101,"AE FOLLOW-UP",NA,"2014-02-17","2014-02-17"
"899","CDISCPILOT01","SV","01-704-1074",1,"SCREENING 1",-7,"2014-01-19","2014-01-19"
"900","CDISCPILOT01","SV","01-704-1074",2,"SCREENING 2",-1,"2014-01-20","2014-01-20"
"901","CDISCPILOT01","SV","01-704-1074",3,"BASELINE",1,"2014-01-22","2014-01-22"
"902","CDISCPILOT01","SV","01-704-1074",3.5,"AMBUL ECG PLACEMENT",13,"2014-02-08","2014-02-08"
"903","CDISCPILOT01","SV","01-704-1074",4,"WEEK 2",14,"2014-02-09","2014-02-09"
"904","CDISCPILOT01","SV","01-704-1074",5,"WEEK 4",28,"2014-02-22","2014-02-22"
"905","CDISCPILOT01","SV","01-704-1074",6,"AMBUL ECG REMOVAL",30,"2014-02-24","2014-02-24"
"906","CDISCPILOT01","SV","01-704-1074",7,"WEEK 6",42,"2014-03-09","2014-03-09"
"907","CDISCPILOT01","SV","01-704-1074",8,"WEEK 8",56,"2014-03-31","2014-03-31"
"908","CDISCPILOT01","SV","01-704-1093",1,"SCREENING 1",-7,"2013-02-22","2013-02-22"
"909","CDISCPILOT01","SV","01-704-1093",1.1,"UNSCHEDULED 1.1",NA,"2013-02-22","2013-02-22"
"910","CDISCPILOT01","SV","01-704-1093",1.2,"UNSCHEDULED 1.2",NA,"2013-03-02","2013-03-02"
"911","CDISCPILOT01","SV","01-704-1093",2,"SCREENING 2",-1,"2013-03-13","2013-03-13"
"912","CDISCPILOT01","SV","01-704-1093",3,"BASELINE",1,"2013-03-15","2013-03-15"
"913","CDISCPILOT01","SV","01-704-1093",3.5,"AMBUL ECG PLACEMENT",13,"2013-03-29","2013-03-29"
"914","CDISCPILOT01","SV","01-704-1093",4,"WEEK 2",14,"2013-03-30","2013-03-30"
"915","CDISCPILOT01","SV","01-704-1093",5,"WEEK 4",28,"2013-04-12","2013-04-12"
"916","CDISCPILOT01","SV","01-704-1093",6,"AMBUL ECG REMOVAL",30,"2013-04-17","2013-04-17"
"917","CDISCPILOT01","SV","01-704-1093",7,"WEEK 6",42,"2013-04-25","2013-04-25"
"918","CDISCPILOT01","SV","01-704-1093",8,"WEEK 8",56,"2013-05-11","2013-05-11"
"919","CDISCPILOT01","SV","01-704-1093",8.1,"WEEK 10 (T)",70,"2013-05-23","2013-05-23"
"920","CDISCPILOT01","SV","01-704-1093",9,"WEEK 12",84,"2013-06-07","2013-06-07"
"921","CDISCPILOT01","SV","01-704-1093",10,"WEEK 16",112,"2013-06-20","2013-06-20"
"922","CDISCPILOT01","SV","01-704-1093",101,"AE FOLLOW-UP",NA,"2013-07-26","2013-07-26"
"923","CDISCPILOT01","SV","01-704-1093",201,"RETRIEVAL",168,"2013-12-25","2013-12-25"
"924","CDISCPILOT01","SV","01-704-1114",1,"SCREENING 1",-7,"2013-01-09","2013-01-09"
"925","CDISCPILOT01","SV","01-704-1114",2,"SCREENING 2",-1,"2013-01-21","2013-01-21"
"926","CDISCPILOT01","SV","01-704-1114",3,"BASELINE",1,"2013-01-23","2013-01-23"
"927","CDISCPILOT01","SV","01-704-1114",3.5,"AMBUL ECG PLACEMENT",13,"2013-02-02","2013-02-02"
"928","CDISCPILOT01","SV","01-704-1114",4,"WEEK 2",14,"2013-02-03","2013-02-03"
"929","CDISCPILOT01","SV","01-704-1114",5,"WEEK 4",28,"2013-02-18","2013-02-18"
"930","CDISCPILOT01","SV","01-704-1114",6,"AMBUL ECG REMOVAL",30,"2013-02-20","2013-02-20"
"931","CDISCPILOT01","SV","01-704-1114",7,"WEEK 6",42,"2013-03-13","2013-03-13"
"932","CDISCPILOT01","SV","01-704-1114",8,"WEEK 8",56,"2013-03-26","2013-03-26"
"933","CDISCPILOT01","SV","01-704-1114",8.1,"WEEK 10 (T)",70,"2013-04-03","2013-04-03"
"934","CDISCPILOT01","SV","01-704-1114",9,"WEEK 12",84,"2013-04-17","2013-04-17"
"935","CDISCPILOT01","SV","01-704-1114",9.1,"WEEK 14 (T)",98,"2013-04-29","2013-04-29"
"936","CDISCPILOT01","SV","01-704-1114",10,"WEEK 16",112,"2013-05-14","2013-05-14"
"937","CDISCPILOT01","SV","01-704-1114",10.1,"WEEK 18 (T)",126,"2013-05-28","2013-05-28"
"938","CDISCPILOT01","SV","01-704-1114",11,"WEEK 20",140,"2013-06-16","2013-06-16"
"939","CDISCPILOT01","SV","01-704-1114",12,"WEEK 24",168,"2013-07-08","2013-07-08"
"940","CDISCPILOT01","SV","01-704-1120",1,"SCREENING 1",-7,"2013-11-18","2013-11-18"
"941","CDISCPILOT01","SV","01-704-1120",2,"SCREENING 2",-1,"2013-11-30","2013-11-30"
"942","CDISCPILOT01","SV","01-704-1120",3,"BASELINE",1,"2013-12-02","2013-12-02"
"943","CDISCPILOT01","SV","01-704-1120",3.5,"AMBUL ECG PLACEMENT",13,"2013-12-14","2013-12-14"
"944","CDISCPILOT01","SV","01-704-1120",4,"WEEK 2",14,"2013-12-15","2013-12-15"
"945","CDISCPILOT01","SV","01-704-1120",5,"WEEK 4",28,"2013-12-29","2013-12-29"
"946","CDISCPILOT01","SV","01-704-1120",6,"AMBUL ECG REMOVAL",30,"2013-12-31","2013-12-31"
"947","CDISCPILOT01","SV","01-704-1120",7,"WEEK 6",42,"2014-01-13","2014-01-13"
"948","CDISCPILOT01","SV","01-704-1120",8,"WEEK 8",56,"2014-01-27","2014-01-27"
"949","CDISCPILOT01","SV","01-704-1120",9,"WEEK 12",84,"2014-02-03","2014-02-03"
"950","CDISCPILOT01","SV","01-704-1120",101,"AE FOLLOW-UP",NA,"2014-03-10","2014-03-10"
"951","CDISCPILOT01","SV","01-704-1127",1,"SCREENING 1",-7,"2013-09-16","2013-09-16"
"952","CDISCPILOT01","SV","01-704-1127",2,"SCREENING 2",-1,"2013-09-30","2013-09-30"
"953","CDISCPILOT01","SV","01-704-1127",3,"BASELINE",1,"2013-10-02","2013-10-02"
"954","CDISCPILOT01","SV","01-704-1127",3.5,"AMBUL ECG PLACEMENT",13,"2013-10-15","2013-10-15"
"955","CDISCPILOT01","SV","01-704-1127",4,"WEEK 2",14,"2013-10-16","2013-10-16"
"956","CDISCPILOT01","SV","01-704-1127",5,"WEEK 4",28,"2013-10-30","2013-10-30"
"957","CDISCPILOT01","SV","01-704-1127",6,"AMBUL ECG REMOVAL",30,"2013-11-03","2013-11-03"
"958","CDISCPILOT01","SV","01-704-1127",7,"WEEK 6",42,"2013-11-13","2013-11-13"
"959","CDISCPILOT01","SV","01-704-1127",8,"WEEK 8",56,"2013-11-26","2013-11-26"
"960","CDISCPILOT01","SV","01-704-1127",8.1,"WEEK 10 (T)",70,"2013-12-10","2013-12-10"
"961","CDISCPILOT01","SV","01-704-1127",9,"WEEK 12",84,"2013-12-25","2013-12-25"
"962","CDISCPILOT01","SV","01-704-1127",9.1,"WEEK 14 (T)",98,"2014-01-08","2014-01-08"
"963","CDISCPILOT01","SV","01-704-1127",10,"WEEK 16",112,"2014-01-21","2014-01-21"
"964","CDISCPILOT01","SV","01-704-1127",10.1,"WEEK 18 (T)",126,"2014-02-05","2014-02-05"
"965","CDISCPILOT01","SV","01-704-1127",11,"WEEK 20",140,"2014-02-17","2014-02-17"
"966","CDISCPILOT01","SV","01-704-1127",11.1,"WEEK 22 (T)",154,"2014-03-05","2014-03-05"
"967","CDISCPILOT01","SV","01-704-1127",12,"WEEK 24",168,"2014-03-17","2014-03-17"
"968","CDISCPILOT01","SV","01-704-1127",13,"WEEK 26",182,"2014-03-31","2014-03-31"
"969","CDISCPILOT01","SV","01-704-1135",1,"SCREENING 1",-7,"2013-10-23","2013-10-23"
"970","CDISCPILOT01","SV","01-704-1135",2,"SCREENING 2",-1,"2013-10-29","2013-10-29"
"971","CDISCPILOT01","SV","01-704-1135",3,"BASELINE",1,"2013-10-31","2013-10-31"
"972","CDISCPILOT01","SV","01-704-1135",3.5,"AMBUL ECG PLACEMENT",13,"2013-11-13","2013-11-13"
"973","CDISCPILOT01","SV","01-704-1135",4,"WEEK 2",14,"2013-11-14","2013-11-14"
"974","CDISCPILOT01","SV","01-704-1135",5,"WEEK 4",28,"2013-11-26","2013-11-26"
"975","CDISCPILOT01","SV","01-704-1135",6,"AMBUL ECG REMOVAL",30,"2013-11-28","2013-11-28"
"976","CDISCPILOT01","SV","01-704-1135",7,"WEEK 6",42,"2013-12-11","2013-12-11"
"977","CDISCPILOT01","SV","01-704-1135",8,"WEEK 8",56,"2013-12-25","2013-12-25"
"978","CDISCPILOT01","SV","01-704-1135",8.1,"WEEK 10 (T)",70,"2014-01-09","2014-01-09"
"979","CDISCPILOT01","SV","01-704-1135",9,"WEEK 12",84,"2014-01-22","2014-01-22"
"980","CDISCPILOT01","SV","01-704-1135",9.1,"WEEK 14 (T)",98,"2014-01-23","2014-01-23"
"981","CDISCPILOT01","SV","01-704-1135",10,"WEEK 16",112,"2014-02-19","2014-02-19"
"982","CDISCPILOT01","SV","01-704-1135",10.1,"WEEK 18 (T)",126,"2014-03-08","2014-03-08"
"983","CDISCPILOT01","SV","01-704-1135",11,"WEEK 20",140,"2014-03-26","2014-03-26"
"984","CDISCPILOT01","SV","01-704-1135",11.1,"WEEK 22 (T)",154,"2014-04-03","2014-04-03"
"985","CDISCPILOT01","SV","01-704-1135",12,"WEEK 24",168,"2014-05-01","2014-05-01"
"986","CDISCPILOT01","SV","01-704-1135",13,"WEEK 26",182,"2014-05-16","2014-05-16"
"987","CDISCPILOT01","SV","01-704-1164",1,"SCREENING 1",-7,"2012-09-11","2012-09-11"
"988","CDISCPILOT01","SV","01-704-1164",2,"SCREENING 2",-1,"2012-09-16","2012-09-16"
"989","CDISCPILOT01","SV","01-704-1164",3,"BASELINE",1,"2012-09-19","2012-09-19"
"990","CDISCPILOT01","SV","01-704-1164",3.5,"AMBUL ECG PLACEMENT",13,"2012-10-03","2012-10-03"
"991","CDISCPILOT01","SV","01-704-1164",4,"WEEK 2",14,"2012-10-04","2012-10-04"
"992","CDISCPILOT01","SV","01-704-1164",5,"WEEK 4",28,"2012-10-21","2012-10-21"
"993","CDISCPILOT01","SV","01-704-1164",6,"AMBUL ECG REMOVAL",30,"2012-10-23","2012-10-23"
"994","CDISCPILOT01","SV","01-704-1164",7,"WEEK 6",42,"2012-11-01","2012-11-01"
"995","CDISCPILOT01","SV","01-704-1164",8,"WEEK 8",56,"2012-11-15","2012-11-15"
"996","CDISCPILOT01","SV","01-704-1164",8.1,"WEEK 10 (T)",70,"2012-11-28","2012-11-28"
"997","CDISCPILOT01","SV","01-704-1164",9,"WEEK 12",84,"2012-12-16","2012-12-16"
"998","CDISCPILOT01","SV","01-704-1164",9.1,"WEEK 14 (T)",98,"2012-12-26","2012-12-26"
"999","CDISCPILOT01","SV","01-704-1164",10,"WEEK 16",112,"2013-01-14","2013-01-14"
"1000","CDISCPILOT01","SV","01-704-1164",10.1,"WEEK 18 (T)",126,"2013-01-23","2013-01-23"
"1001","CDISCPILOT01","SV","01-704-1164",11,"WEEK 20",140,"2013-02-14","2013-02-14"
"1002","CDISCPILOT01","SV","01-704-1164",11.1,"WEEK 22 (T)",154,"2013-02-20","2013-02-20"
"1003","CDISCPILOT01","SV","01-704-1164",12,"WEEK 24",168,"2013-03-17","2013-03-17"
"1004","CDISCPILOT01","SV","01-704-1164",13,"WEEK 26",182,"2013-04-04","2013-04-04"
"1005","CDISCPILOT01","SV","01-704-1218",1,"SCREENING 1",-7,"2012-11-11","2012-11-11"
"1006","CDISCPILOT01","SV","01-704-1218",1.1,"UNSCHEDULED 1.1",NA,"2012-10-11","2012-10-11"
"1007","CDISCPILOT01","SV","01-704-1218",1.2,"UNSCHEDULED 1.2",NA,"2012-11-11","2012-11-11"
"1008","CDISCPILOT01","SV","01-704-1218",2,"SCREENING 2",-1,"2012-11-17","2012-11-17"
"1009","CDISCPILOT01","SV","01-704-1218",3,"BASELINE",1,"2012-11-19","2012-11-19"
"1010","CDISCPILOT01","SV","01-704-1218",3.5,"AMBUL ECG PLACEMENT",13,"2012-12-02","2012-12-02"
"1011","CDISCPILOT01","SV","01-704-1218",4,"WEEK 2",14,"2012-12-03","2012-12-03"
"1012","CDISCPILOT01","SV","01-704-1218",5,"WEEK 4",28,"2012-12-15","2012-12-15"
"1013","CDISCPILOT01","SV","01-704-1218",6,"AMBUL ECG REMOVAL",30,"2012-12-17","2012-12-17"
"1014","CDISCPILOT01","SV","01-704-1218",7,"WEEK 6",42,"2012-12-30","2012-12-30"
"1015","CDISCPILOT01","SV","01-704-1218",8,"WEEK 8",56,"2013-01-14","2013-01-14"
"1016","CDISCPILOT01","SV","01-704-1218",8.1,"WEEK 10 (T)",70,"2013-01-25","2013-01-25"
"1017","CDISCPILOT01","SV","01-704-1218",9,"WEEK 12",84,"2013-02-11","2013-02-11"
"1018","CDISCPILOT01","SV","01-704-1218",9.1,"WEEK 14 (T)",98,"2013-02-27","2013-02-27"
"1019","CDISCPILOT01","SV","01-704-1218",10,"WEEK 16",112,"2013-03-18","2013-03-18"
"1020","CDISCPILOT01","SV","01-704-1218",10.1,"WEEK 18 (T)",126,"2013-03-28","2013-03-28"
"1021","CDISCPILOT01","SV","01-704-1218",11,"WEEK 20",140,"2013-04-14","2013-04-14"
"1022","CDISCPILOT01","SV","01-704-1218",11.1,"WEEK 22 (T)",154,"2013-04-22","2013-04-22"
"1023","CDISCPILOT01","SV","01-704-1218",12,"WEEK 24",168,"2013-05-13","2013-05-13"
"1024","CDISCPILOT01","SV","01-704-1218",13,"WEEK 26",182,"2013-05-27","2013-05-27"
"1025","CDISCPILOT01","SV","01-704-1233",1,"SCREENING 1",-7,"2013-03-08","2013-03-08"
"1026","CDISCPILOT01","SV","01-704-1233",2,"SCREENING 2",-1,"2013-03-19","2013-03-19"
"1027","CDISCPILOT01","SV","01-704-1233",3,"BASELINE",1,"2013-03-21","2013-03-21"
"1028","CDISCPILOT01","SV","01-704-1233",3.5,"AMBUL ECG PLACEMENT",13,"2013-04-03","2013-04-03"
"1029","CDISCPILOT01","SV","01-704-1233",4,"WEEK 2",14,"2013-04-04","2013-04-04"
"1030","CDISCPILOT01","SV","01-704-1233",5,"WEEK 4",28,"2013-04-16","2013-04-16"
"1031","CDISCPILOT01","SV","01-704-1233",6,"AMBUL ECG REMOVAL",30,"2013-04-18","2013-04-18"
"1032","CDISCPILOT01","SV","01-704-1233",7,"WEEK 6",42,"2013-05-01","2013-05-01"
"1033","CDISCPILOT01","SV","01-704-1233",8,"WEEK 8",56,"2013-05-16","2013-05-16"
"1034","CDISCPILOT01","SV","01-704-1233",8.1,"WEEK 10 (T)",70,"2013-05-30","2013-05-30"
"1035","CDISCPILOT01","SV","01-704-1233",9,"WEEK 12",84,"2013-06-13","2013-06-13"
"1036","CDISCPILOT01","SV","01-704-1233",9.1,"WEEK 14 (T)",98,"2013-06-27","2013-06-27"
"1037","CDISCPILOT01","SV","01-704-1233",10,"WEEK 16",112,"2013-07-11","2013-07-11"
"1038","CDISCPILOT01","SV","01-704-1233",11,"WEEK 20",140,"2013-07-14","2013-07-14"
"1039","CDISCPILOT01","SV","01-704-1241",1,"SCREENING 1",-7,"2013-08-14","2013-08-14"
"1040","CDISCPILOT01","SV","01-704-1241",2,"SCREENING 2",-1,"2013-08-23","2013-08-23"
"1041","CDISCPILOT01","SV","01-704-1241",3,"BASELINE",1,"2013-08-25","2013-08-25"
"1042","CDISCPILOT01","SV","01-704-1241",3.5,"AMBUL ECG PLACEMENT",13,"2013-09-04","2013-09-04"
"1043","CDISCPILOT01","SV","01-704-1241",4,"WEEK 2",14,"2013-09-05","2013-09-05"
"1044","CDISCPILOT01","SV","01-704-1241",5,"WEEK 4",28,"2013-09-19","2013-09-19"
"1045","CDISCPILOT01","SV","01-704-1241",6,"AMBUL ECG REMOVAL",30,"2013-09-21","2013-09-21"
"1046","CDISCPILOT01","SV","01-704-1241",7,"WEEK 6",42,"2013-10-09","2013-10-09"
"1047","CDISCPILOT01","SV","01-704-1241",8,"WEEK 8",56,"2013-10-31","2013-10-31"
"1048","CDISCPILOT01","SV","01-704-1241",101,"AE FOLLOW-UP",NA,"2014-01-22","2014-01-22"
"1049","CDISCPILOT01","SV","01-704-1260",1,"SCREENING 1",-7,"2012-08-23","2012-08-23"
"1050","CDISCPILOT01","SV","01-704-1260",2,"SCREENING 2",-1,"2012-08-26","2012-08-26"
"1051","CDISCPILOT01","SV","01-704-1260",3,"BASELINE",1,"2012-08-30","2012-08-30"
"1052","CDISCPILOT01","SV","01-704-1260",3.5,"AMBUL ECG PLACEMENT",13,"2012-09-12","2012-09-12"
"1053","CDISCPILOT01","SV","01-704-1260",4,"WEEK 2",14,"2012-09-13","2012-09-13"
"1054","CDISCPILOT01","SV","01-704-1260",5,"WEEK 4",28,"2012-09-26","2012-09-26"
"1055","CDISCPILOT01","SV","01-704-1260",6,"AMBUL ECG REMOVAL",30,"2012-09-28","2012-09-28"
"1056","CDISCPILOT01","SV","01-704-1260",7,"WEEK 6",42,"2012-10-11","2012-10-11"
"1057","CDISCPILOT01","SV","01-704-1260",8,"WEEK 8",56,"2012-10-24","2012-10-24"
"1058","CDISCPILOT01","SV","01-704-1260",9,"WEEK 12",84,"2013-01-18","2013-01-18"
"1059","CDISCPILOT01","SV","01-704-1266",1,"SCREENING 1",-7,"2013-10-05","2013-10-05"
"1060","CDISCPILOT01","SV","01-704-1266",2,"SCREENING 2",-1,"2013-10-11","2013-10-11"
"1061","CDISCPILOT01","SV","01-704-1266",3,"BASELINE",1,"2013-10-13","2013-10-13"
"1062","CDISCPILOT01","SV","01-704-1266",3.5,"AMBUL ECG PLACEMENT",13,"2013-10-26","2013-10-26"
"1063","CDISCPILOT01","SV","01-704-1266",4,"WEEK 2",14,"2013-10-27","2013-10-27"
"1064","CDISCPILOT01","SV","01-704-1266",5,"WEEK 4",28,"2013-11-08","2013-11-08"
"1065","CDISCPILOT01","SV","01-704-1266",6,"AMBUL ECG REMOVAL",30,"2013-11-10","2013-11-10"
"1066","CDISCPILOT01","SV","01-704-1266",7,"WEEK 6",42,"2013-11-22","2013-11-22"
"1067","CDISCPILOT01","SV","01-704-1266",8,"WEEK 8",56,"2013-12-06","2013-12-06"
"1068","CDISCPILOT01","SV","01-704-1266",101,"AE FOLLOW-UP",NA,"2014-01-03","2014-01-03"
"1069","CDISCPILOT01","SV","01-704-1323",1,"SCREENING 1",-7,"2013-06-13","2013-06-13"
"1070","CDISCPILOT01","SV","01-704-1323",2,"SCREENING 2",-1,"2013-07-07","2013-07-07"
"1071","CDISCPILOT01","SV","01-704-1323",3,"BASELINE",1,"2013-07-08","2013-07-08"
"1072","CDISCPILOT01","SV","01-704-1323",3.5,"AMBUL ECG PLACEMENT",13,"2013-07-21","2013-07-21"
"1073","CDISCPILOT01","SV","01-704-1323",4,"WEEK 2",14,"2013-07-23","2013-07-23"
"1074","CDISCPILOT01","SV","01-704-1323",5,"WEEK 4",28,"2013-08-04","2013-08-04"
"1075","CDISCPILOT01","SV","01-704-1323",6,"AMBUL ECG REMOVAL",30,"2013-08-06","2013-08-06"
"1076","CDISCPILOT01","SV","01-704-1323",7,"WEEK 6",42,"2013-08-08","2013-08-08"
"1077","CDISCPILOT01","SV","01-704-1323",101,"AE FOLLOW-UP",NA,"2013-10-01","2013-10-01"
"1078","CDISCPILOT01","SV","01-704-1325",1,"SCREENING 1",-7,"2014-04-16","2014-04-16"
"1079","CDISCPILOT01","SV","01-704-1325",2,"SCREENING 2",-1,"2014-04-21","2014-04-21"
"1080","CDISCPILOT01","SV","01-704-1325",3,"BASELINE",1,"2014-04-23","2014-04-23"
"1081","CDISCPILOT01","SV","01-704-1325",3.5,"AMBUL ECG PLACEMENT",13,"2014-05-06","2014-05-06"
"1082","CDISCPILOT01","SV","01-704-1325",4,"WEEK 2",14,"2014-05-07","2014-05-07"
"1083","CDISCPILOT01","SV","01-704-1325",5,"WEEK 4",28,"2014-05-19","2014-05-19"
"1084","CDISCPILOT01","SV","01-704-1325",6,"AMBUL ECG REMOVAL",30,"2014-05-21","2014-05-21"
"1085","CDISCPILOT01","SV","01-704-1325",7,"WEEK 6",42,"2014-06-04","2014-06-04"
"1086","CDISCPILOT01","SV","01-704-1325",8,"WEEK 8",56,"2014-06-18","2014-06-18"
"1087","CDISCPILOT01","SV","01-704-1325",8.1,"WEEK 10 (T)",70,"2014-07-02","2014-07-02"
"1088","CDISCPILOT01","SV","01-704-1325",9,"WEEK 12",84,"2014-07-16","2014-07-16"
"1089","CDISCPILOT01","SV","01-704-1325",10,"WEEK 16",112,"2014-08-06","2014-08-06"
"1090","CDISCPILOT01","SV","01-704-1332",1,"SCREENING 1",-7,"2013-11-24","2013-11-24"
"1091","CDISCPILOT01","SV","01-704-1332",2,"SCREENING 2",-1,"2013-12-07","2013-12-07"
"1092","CDISCPILOT01","SV","01-704-1332",3,"BASELINE",1,"2013-12-09","2013-12-09"
"1093","CDISCPILOT01","SV","01-704-1332",3.5,"AMBUL ECG PLACEMENT",13,"2013-12-22","2013-12-22"
"1094","CDISCPILOT01","SV","01-704-1332",4,"WEEK 2",14,"2013-12-23","2013-12-23"
"1095","CDISCPILOT01","SV","01-704-1332",5,"WEEK 4",28,"2014-01-04","2014-01-04"
"1096","CDISCPILOT01","SV","01-704-1332",6,"AMBUL ECG REMOVAL",30,"2014-01-06","2014-01-06"
"1097","CDISCPILOT01","SV","01-704-1332",7,"WEEK 6",42,"2014-01-20","2014-01-20"
"1098","CDISCPILOT01","SV","01-704-1332",8,"WEEK 8",56,"2014-02-03","2014-02-03"
"1099","CDISCPILOT01","SV","01-704-1332",9,"WEEK 12",84,"2014-02-16","2014-02-16"
"1100","CDISCPILOT01","SV","01-704-1332",101,"AE FOLLOW-UP",NA,"2014-02-24","2014-02-24"
"1101","CDISCPILOT01","SV","01-704-1351",1,"SCREENING 1",-7,"2013-09-26","2013-09-26"
"1102","CDISCPILOT01","SV","01-704-1351",1.1,"UNSCHEDULED 1.1",NA,"2013-10-03","2013-10-03"
"1103","CDISCPILOT01","SV","01-704-1351",2,"SCREENING 2",-1,"2013-10-10","2013-10-10"
"1104","CDISCPILOT01","SV","01-704-1351",3,"BASELINE",1,"2013-10-12","2013-10-12"
"1105","CDISCPILOT01","SV","01-704-1351",4,"WEEK 2",14,"2013-10-26","2013-10-26"
"1106","CDISCPILOT01","SV","01-704-1351",5,"WEEK 4",28,"2013-11-07","2013-11-07"
"1107","CDISCPILOT01","SV","01-704-1351",5.1,"UNSCHEDULED 5.1",NA,"2013-11-09","2013-11-09"
"1108","CDISCPILOT01","SV","01-704-1351",6,"AMBUL ECG REMOVAL",30,"2013-11-09","2013-11-09"
"1109","CDISCPILOT01","SV","01-704-1351",7,"WEEK 6",42,"2013-11-16","2013-11-16"
"1110","CDISCPILOT01","SV","01-704-1351",8,"WEEK 8",56,"2013-12-02","2013-12-02"
"1111","CDISCPILOT01","SV","01-704-1351",8.1,"WEEK 10 (T)",70,"2013-12-14","2013-12-14"
"1112","CDISCPILOT01","SV","01-704-1351",9,"WEEK 12",84,"2013-12-28","2013-12-28"
"1113","CDISCPILOT01","SV","01-704-1351",9.1,"WEEK 14 (T)",98,"2014-01-11","2014-01-11"
"1114","CDISCPILOT01","SV","01-704-1351",10,"WEEK 16",112,"2014-01-26","2014-01-26"
"1115","CDISCPILOT01","SV","01-704-1351",10.1,"WEEK 18 (T)",126,"2014-02-08","2014-02-08"
"1116","CDISCPILOT01","SV","01-704-1351",11,"WEEK 20",140,"2014-03-01","2014-03-01"
"1117","CDISCPILOT01","SV","01-704-1351",11.1,"WEEK 22 (T)",154,"2014-03-15","2014-03-15"
"1118","CDISCPILOT01","SV","01-704-1351",12,"WEEK 24",168,"2014-04-04","2014-04-04"
"1119","CDISCPILOT01","SV","01-704-1351",13,"WEEK 26",182,"2014-04-18","2014-04-18"
"1120","CDISCPILOT01","SV","01-704-1388",1,"SCREENING 1",-7,"2012-11-28","2012-11-28"
"1121","CDISCPILOT01","SV","01-704-1388",2,"SCREENING 2",-1,"2012-12-05","2012-12-05"
"1122","CDISCPILOT01","SV","01-704-1388",3,"BASELINE",1,"2012-12-07","2012-12-07"
"1123","CDISCPILOT01","SV","01-704-1388",3.5,"AMBUL ECG PLACEMENT",13,"2012-12-20","2012-12-20"
"1124","CDISCPILOT01","SV","01-704-1388",4,"WEEK 2",14,"2012-12-21","2012-12-21"
"1125","CDISCPILOT01","SV","01-704-1388",5,"WEEK 4",28,"2013-01-02","2013-01-02"
"1126","CDISCPILOT01","SV","01-704-1388",6,"AMBUL ECG REMOVAL",30,"2013-01-04","2013-01-04"
"1127","CDISCPILOT01","SV","01-704-1388",7,"WEEK 6",42,"2013-01-18","2013-01-18"
"1128","CDISCPILOT01","SV","01-704-1388",8,"WEEK 8",56,"2013-01-30","2013-01-30"
"1129","CDISCPILOT01","SV","01-704-1388",8.1,"WEEK 10 (T)",70,"2013-02-16","2013-02-16"
"1130","CDISCPILOT01","SV","01-704-1388",9,"WEEK 12",84,"2013-02-27","2013-02-27"
"1131","CDISCPILOT01","SV","01-704-1388",9.1,"WEEK 14 (T)",98,"2013-03-15","2013-03-15"
"1132","CDISCPILOT01","SV","01-704-1388",10,"WEEK 16",112,"2013-03-27","2013-03-27"
"1133","CDISCPILOT01","SV","01-704-1388",10.1,"WEEK 18 (T)",126,"2013-04-12","2013-04-12"
"1134","CDISCPILOT01","SV","01-704-1388",11,"WEEK 20",140,"2013-04-28","2013-04-28"
"1135","CDISCPILOT01","SV","01-704-1388",11.1,"WEEK 22 (T)",154,"2013-05-12","2013-05-12"
"1136","CDISCPILOT01","SV","01-704-1388",12,"WEEK 24",168,"2013-05-23","2013-05-23"
"1137","CDISCPILOT01","SV","01-704-1388",13,"WEEK 26",182,"2013-06-19","2013-06-19"
"1138","CDISCPILOT01","SV","01-704-1435",1,"SCREENING 1",-7,"2012-11-01","2012-11-01"
"1139","CDISCPILOT01","SV","01-704-1435",2,"SCREENING 2",-1,"2012-11-15","2012-11-15"
"1140","CDISCPILOT01","SV","01-704-1435",3,"BASELINE",1,"2012-11-17","2012-11-17"
"1141","CDISCPILOT01","SV","01-704-1435",3.5,"AMBUL ECG PLACEMENT",13,"2012-11-30","2012-11-30"
"1142","CDISCPILOT01","SV","01-704-1435",4,"WEEK 2",14,"2012-12-01","2012-12-01"
"1143","CDISCPILOT01","SV","01-704-1435",5,"WEEK 4",28,"2012-12-15","2012-12-15"
"1144","CDISCPILOT01","SV","01-704-1435",6,"AMBUL ECG REMOVAL",30,"2012-12-17","2012-12-17"
"1145","CDISCPILOT01","SV","01-704-1435",7,"WEEK 6",42,"2012-12-30","2012-12-30"
"1146","CDISCPILOT01","SV","01-704-1435",8,"WEEK 8",56,"2013-01-12","2013-01-12"
"1147","CDISCPILOT01","SV","01-704-1445",1,"SCREENING 1",-7,"2014-05-01","2014-05-01"
"1148","CDISCPILOT01","SV","01-704-1445",1.1,"UNSCHEDULED 1.1",NA,"2014-05-03","2014-05-03"
"1149","CDISCPILOT01","SV","01-704-1445",2,"SCREENING 2",-1,"2014-05-09","2014-05-09"
"1150","CDISCPILOT01","SV","01-704-1445",3,"BASELINE",1,"2014-05-11","2014-05-11"
"1151","CDISCPILOT01","SV","01-704-1445",3.5,"AMBUL ECG PLACEMENT",13,"2014-05-24","2014-05-24"
"1152","CDISCPILOT01","SV","01-704-1445",4,"WEEK 2",14,"2014-05-25","2014-05-25"
"1153","CDISCPILOT01","SV","01-704-1445",5,"WEEK 4",28,"2014-06-11","2014-06-11"
"1154","CDISCPILOT01","SV","01-704-1445",6,"AMBUL ECG REMOVAL",30,"2014-06-13","2014-06-13"
"1155","CDISCPILOT01","SV","01-704-1445",7,"WEEK 6",42,"2014-06-25","2014-06-25"
"1156","CDISCPILOT01","SV","01-704-1445",8,"WEEK 8",56,"2014-07-09","2014-07-09"
"1157","CDISCPILOT01","SV","01-704-1445",8.1,"WEEK 10 (T)",70,"2014-07-27","2014-07-27"
"1158","CDISCPILOT01","SV","01-704-1445",9,"WEEK 12",84,"2014-08-06","2014-08-06"
"1159","CDISCPILOT01","SV","01-704-1445",9.1,"WEEK 14 (T)",98,"2014-08-24","2014-08-24"
"1160","CDISCPILOT01","SV","01-704-1445",10,"WEEK 16",112,"2014-09-03","2014-09-03"
"1161","CDISCPILOT01","SV","01-704-1445",10.1,"WEEK 18 (T)",126,"2014-09-25","2014-09-25"
"1162","CDISCPILOT01","SV","01-704-1445",11,"WEEK 20",140,"2014-10-01","2014-10-01"
"1163","CDISCPILOT01","SV","01-704-1445",11.1,"WEEK 22 (T)",154,"2014-10-15","2014-10-15"
"1164","CDISCPILOT01","SV","01-704-1445",12,"WEEK 24",168,"2014-11-01","2014-11-01"
"1165","CDISCPILOT01","SV","01-705-1011",1,"SCREENING 1",-7,"2013-09-01","2013-09-01"
"1166","CDISCPILOT01","SV","01-705-1018",1,"SCREENING 1",-7,"2013-06-30","2013-06-30"
"1167","CDISCPILOT01","SV","01-705-1018",2,"SCREENING 2",-1,"2013-07-03","2013-07-03"
"1168","CDISCPILOT01","SV","01-705-1018",3,"BASELINE",1,"2013-07-05","2013-07-05"
"1169","CDISCPILOT01","SV","01-705-1018",4,"WEEK 2",14,"2013-07-12","2013-07-12"
"1170","CDISCPILOT01","SV","01-705-1031",1,"SCREENING 1",-7,"2013-11-17","2013-11-17"
"1171","CDISCPILOT01","SV","01-705-1031",2,"SCREENING 2",-1,"2013-11-19","2013-11-19"
"1172","CDISCPILOT01","SV","01-705-1031",3,"BASELINE",1,"2013-11-27","2013-11-27"
"1173","CDISCPILOT01","SV","01-705-1031",3.5,"AMBUL ECG PLACEMENT",13,"2013-12-17","2013-12-17"
"1174","CDISCPILOT01","SV","01-705-1031",4,"WEEK 2",14,"2013-12-18","2013-12-18"
"1175","CDISCPILOT01","SV","01-705-1031",5,"WEEK 4",28,"2013-12-25","2013-12-25"
"1176","CDISCPILOT01","SV","01-705-1031",6,"AMBUL ECG REMOVAL",30,"2013-12-27","2013-12-27"
"1177","CDISCPILOT01","SV","01-705-1031",7,"WEEK 6",42,"2014-01-12","2014-01-12"
"1178","CDISCPILOT01","SV","01-705-1031",8,"WEEK 8",56,"2014-01-23","2014-01-23"
"1179","CDISCPILOT01","SV","01-705-1031",8.1,"WEEK 10 (T)",70,"2014-02-06","2014-02-06"
"1180","CDISCPILOT01","SV","01-705-1031",9,"WEEK 12",84,"2014-02-20","2014-02-20"
"1181","CDISCPILOT01","SV","01-705-1031",9.1,"WEEK 14 (T)",98,"2014-03-06","2014-03-06"
"1182","CDISCPILOT01","SV","01-705-1031",10,"WEEK 16",112,"2014-03-20","2014-03-20"
"1183","CDISCPILOT01","SV","01-705-1031",10.1,"WEEK 18 (T)",126,"2014-04-03","2014-04-03"
"1184","CDISCPILOT01","SV","01-705-1031",11,"WEEK 20",140,"2014-04-13","2014-04-13"
"1185","CDISCPILOT01","SV","01-705-1031",11.1,"WEEK 22 (T)",154,"2014-04-26","2014-04-26"
"1186","CDISCPILOT01","SV","01-705-1031",12,"WEEK 24",168,"2014-05-11","2014-05-11"
"1187","CDISCPILOT01","SV","01-705-1058",1,"SCREENING 1",-7,"2013-12-02","2013-12-02"
"1188","CDISCPILOT01","SV","01-705-1059",1,"SCREENING 1",-7,"2013-08-02","2013-08-02"
"1189","CDISCPILOT01","SV","01-705-1059",2,"SCREENING 2",-1,"2013-08-03","2013-08-03"
"1190","CDISCPILOT01","SV","01-705-1059",3,"BASELINE",1,"2013-08-05","2013-08-05"
"1191","CDISCPILOT01","SV","01-705-1059",3.5,"AMBUL ECG PLACEMENT",13,"2013-08-18","2013-08-18"
"1192","CDISCPILOT01","SV","01-705-1059",4,"WEEK 2",14,"2013-08-19","2013-08-19"
"1193","CDISCPILOT01","SV","01-705-1059",5,"WEEK 4",28,"2013-09-05","2013-09-05"
"1194","CDISCPILOT01","SV","01-705-1059",6,"AMBUL ECG REMOVAL",30,"2013-09-07","2013-09-07"
"1195","CDISCPILOT01","SV","01-705-1059",7,"WEEK 6",42,"2013-09-19","2013-09-19"
"1196","CDISCPILOT01","SV","01-705-1059",8,"WEEK 8",56,"2013-10-03","2013-10-03"
"1197","CDISCPILOT01","SV","01-705-1059",8.1,"WEEK 10 (T)",70,"2013-10-17","2013-10-17"
"1198","CDISCPILOT01","SV","01-705-1059",9,"WEEK 12",84,"2013-11-07","2013-11-07"
"1199","CDISCPILOT01","SV","01-705-1059",9.1,"WEEK 14 (T)",98,"2013-11-21","2013-11-21"
"1200","CDISCPILOT01","SV","01-705-1059",10,"WEEK 16",112,"2013-12-05","2013-12-05"
"1201","CDISCPILOT01","SV","01-705-1059",101,"AE FOLLOW-UP",NA,"2014-01-02","2014-01-02"
"1202","CDISCPILOT01","SV","01-705-1059",201,"RETRIEVAL",168,"2014-02-06","2014-02-06"
"1203","CDISCPILOT01","SV","01-705-1112",1,"SCREENING 1",-7,"2014-02-23","2014-02-23"
"1204","CDISCPILOT01","SV","01-705-1186",1,"SCREENING 1",-7,"2014-01-03","2014-01-03"
"1205","CDISCPILOT01","SV","01-705-1186",2,"SCREENING 2",-1,"2014-01-06","2014-01-06"
"1206","CDISCPILOT01","SV","01-705-1186",3,"BASELINE",1,"2014-01-08","2014-01-08"
"1207","CDISCPILOT01","SV","01-705-1186",3.5,"AMBUL ECG PLACEMENT",13,"2014-01-22","2014-01-22"
"1208","CDISCPILOT01","SV","01-705-1186",4,"WEEK 2",14,"2014-01-23","2014-01-23"
"1209","CDISCPILOT01","SV","01-705-1186",4.1,"UNSCHEDULED 4.1",NA,"2014-01-26","2014-01-26"
"1210","CDISCPILOT01","SV","01-705-1186",4.2,"UNSCHEDULED 4.2",NA,"2014-02-01","2014-02-01"
"1211","CDISCPILOT01","SV","01-705-1186",5,"WEEK 4",28,"2014-02-07","2014-02-07"
"1212","CDISCPILOT01","SV","01-705-1186",5.1,"UNSCHEDULED 5.1",NA,"2014-02-07","2014-02-07"
"1213","CDISCPILOT01","SV","01-705-1199",1,"SCREENING 1",-7,"2013-09-11","2013-09-11"
"1214","CDISCPILOT01","SV","01-705-1199",2,"SCREENING 2",-1,"2013-09-14","2013-09-14"
"1215","CDISCPILOT01","SV","01-705-1199",3,"BASELINE",1,"2013-09-16","2013-09-16"
"1216","CDISCPILOT01","SV","01-705-1199",4,"WEEK 2",14,"2013-09-29","2013-09-29"
"1217","CDISCPILOT01","SV","01-705-1199",101,"AE FOLLOW-UP",NA,"2013-09-29","2013-09-29"
"1218","CDISCPILOT01","SV","01-705-1243",1,"SCREENING 1",-7,"2013-02-26","2013-02-26"
"1219","CDISCPILOT01","SV","01-705-1280",1,"SCREENING 1",-7,"2014-01-11","2014-01-11"
"1220","CDISCPILOT01","SV","01-705-1280",2,"SCREENING 2",-1,"2014-01-15","2014-01-15"
"1221","CDISCPILOT01","SV","01-705-1280",3,"BASELINE",1,"2014-01-17","2014-01-17"
"1222","CDISCPILOT01","SV","01-705-1280",3.5,"AMBUL ECG PLACEMENT",13,"2014-01-30","2014-01-30"
"1223","CDISCPILOT01","SV","01-705-1280",4,"WEEK 2",14,"2014-01-31","2014-01-31"
"1224","CDISCPILOT01","SV","01-705-1280",5,"WEEK 4",28,"2014-02-13","2014-02-13"
"1225","CDISCPILOT01","SV","01-705-1280",6,"AMBUL ECG REMOVAL",30,"2014-02-15","2014-02-15"
"1226","CDISCPILOT01","SV","01-705-1280",7,"WEEK 6",42,"2014-03-07","2014-03-07"
"1227","CDISCPILOT01","SV","01-705-1280",8,"WEEK 8",56,"2014-03-21","2014-03-21"
"1228","CDISCPILOT01","SV","01-705-1280",8.1,"WEEK 10 (T)",70,"2014-04-04","2014-04-04"
"1229","CDISCPILOT01","SV","01-705-1280",9,"WEEK 12",84,"2014-04-18","2014-04-18"
"1230","CDISCPILOT01","SV","01-705-1280",9.1,"WEEK 14 (T)",98,"2014-05-02","2014-05-02"
"1231","CDISCPILOT01","SV","01-705-1280",10,"WEEK 16",112,"2014-05-16","2014-05-16"
"1232","CDISCPILOT01","SV","01-705-1280",10.1,"WEEK 18 (T)",126,"2014-05-30","2014-05-30"
"1233","CDISCPILOT01","SV","01-705-1280",11,"WEEK 20",140,"2014-06-13","2014-06-13"
"1234","CDISCPILOT01","SV","01-705-1280",11.1,"WEEK 22 (T)",154,"2014-06-27","2014-06-27"
"1235","CDISCPILOT01","SV","01-705-1280",12,"WEEK 24",168,"2014-07-11","2014-07-11"
"1236","CDISCPILOT01","SV","01-705-1280",13,"WEEK 26",182,"2014-07-25","2014-07-25"
"1237","CDISCPILOT01","SV","01-705-1281",1,"SCREENING 1",-7,"2013-11-26","2013-11-26"
"1238","CDISCPILOT01","SV","01-705-1281",2,"SCREENING 2",-1,"2013-11-26","2013-11-26"
"1239","CDISCPILOT01","SV","01-705-1281",3,"BASELINE",1,"2013-11-28","2013-11-28"
"1240","CDISCPILOT01","SV","01-705-1281",3.5,"AMBUL ECG PLACEMENT",13,"2013-12-14","2013-12-14"
"1241","CDISCPILOT01","SV","01-705-1281",4,"WEEK 2",14,"2013-12-15","2013-12-15"
"1242","CDISCPILOT01","SV","01-705-1281",5,"WEEK 4",28,"2013-12-28","2013-12-28"
"1243","CDISCPILOT01","SV","01-705-1281",6,"AMBUL ECG REMOVAL",30,"2013-12-30","2013-12-30"
"1244","CDISCPILOT01","SV","01-705-1281",7,"WEEK 6",42,"2014-01-07","2014-01-07"
"1245","CDISCPILOT01","SV","01-705-1281",8,"WEEK 8",56,"2014-01-21","2014-01-21"
"1246","CDISCPILOT01","SV","01-705-1281",8.1,"WEEK 10 (T)",70,"2014-02-04","2014-02-04"
"1247","CDISCPILOT01","SV","01-705-1281",9,"WEEK 12",84,"2014-02-18","2014-02-18"
"1248","CDISCPILOT01","SV","01-705-1281",9.1,"WEEK 14 (T)",98,"2014-03-04","2014-03-04"
"1249","CDISCPILOT01","SV","01-705-1281",10,"WEEK 16",112,"2014-03-17","2014-03-17"
"1250","CDISCPILOT01","SV","01-705-1281",101,"AE FOLLOW-UP",NA,"2014-04-20","2014-04-20"
"1251","CDISCPILOT01","SV","01-705-1282",1,"SCREENING 1",-7,"2012-12-23","2012-12-23"
"1252","CDISCPILOT01","SV","01-705-1282",2,"SCREENING 2",-1,"2012-12-24","2012-12-24"
"1253","CDISCPILOT01","SV","01-705-1282",3,"BASELINE",1,"2012-12-26","2012-12-26"
"1254","CDISCPILOT01","SV","01-705-1282",3.5,"AMBUL ECG PLACEMENT",13,"2013-01-08","2013-01-08"
"1255","CDISCPILOT01","SV","01-705-1282",4,"WEEK 2",14,"2013-01-09","2013-01-09"
"1256","CDISCPILOT01","SV","01-705-1282",5,"WEEK 4",28,"2013-01-21","2013-01-21"
"1257","CDISCPILOT01","SV","01-705-1282",6,"AMBUL ECG REMOVAL",30,"2013-01-23","2013-01-23"
"1258","CDISCPILOT01","SV","01-705-1282",7,"WEEK 6",42,"2013-02-07","2013-02-07"
"1259","CDISCPILOT01","SV","01-705-1282",8,"WEEK 8",56,"2013-02-20","2013-02-20"
"1260","CDISCPILOT01","SV","01-705-1282",8.1,"WEEK 10 (T)",70,"2013-03-06","2013-03-06"
"1261","CDISCPILOT01","SV","01-705-1282",9,"WEEK 12",84,"2013-03-20","2013-03-20"
"1262","CDISCPILOT01","SV","01-705-1282",9.1,"WEEK 14 (T)",98,"2013-04-03","2013-04-03"
"1263","CDISCPILOT01","SV","01-705-1282",10,"WEEK 16",112,"2013-04-16","2013-04-16"
"1264","CDISCPILOT01","SV","01-705-1282",10.1,"WEEK 18 (T)",126,"2013-04-30","2013-04-30"
"1265","CDISCPILOT01","SV","01-705-1282",11,"WEEK 20",140,"2013-05-14","2013-05-14"
"1266","CDISCPILOT01","SV","01-705-1282",11.1,"WEEK 22 (T)",154,"2013-05-28","2013-05-28"
"1267","CDISCPILOT01","SV","01-705-1282",12,"WEEK 24",168,"2013-06-11","2013-06-11"
"1268","CDISCPILOT01","SV","01-705-1282",13,"WEEK 26",182,"2013-06-24","2013-06-24"
"1269","CDISCPILOT01","SV","01-705-1292",1,"SCREENING 1",-7,"2013-10-11","2013-10-11"
"1270","CDISCPILOT01","SV","01-705-1292",2,"SCREENING 2",-1,"2013-10-12","2013-10-12"
"1271","CDISCPILOT01","SV","01-705-1292",3,"BASELINE",1,"2013-10-14","2013-10-14"
"1272","CDISCPILOT01","SV","01-705-1292",3.5,"AMBUL ECG PLACEMENT",13,"2013-10-28","2013-10-28"
"1273","CDISCPILOT01","SV","01-705-1292",4,"WEEK 2",14,"2013-10-29","2013-10-29"
"1274","CDISCPILOT01","SV","01-705-1292",5,"WEEK 4",28,"2013-11-22","2013-11-22"
"1275","CDISCPILOT01","SV","01-705-1292",5.1,"UNSCHEDULED 5.1",NA,"2013-11-25","2013-11-25"
"1276","CDISCPILOT01","SV","01-705-1292",6,"AMBUL ECG REMOVAL",30,"2013-11-25","2013-11-25"
"1277","CDISCPILOT01","SV","01-705-1292",7,"WEEK 6",42,"2013-12-11","2013-12-11"
"1278","CDISCPILOT01","SV","01-705-1292",8,"WEEK 8",56,"2014-01-02","2014-01-02"
"1279","CDISCPILOT01","SV","01-705-1292",8.1,"WEEK 10 (T)",70,"2014-01-16","2014-01-16"
"1280","CDISCPILOT01","SV","01-705-1292",9,"WEEK 12",84,"2014-02-07","2014-02-07"
"1281","CDISCPILOT01","SV","01-705-1292",9.1,"WEEK 14 (T)",98,"2014-02-21","2014-02-21"
"1282","CDISCPILOT01","SV","01-705-1292",10,"WEEK 16",112,"2014-03-03","2014-03-03"
"1283","CDISCPILOT01","SV","01-705-1292",10.1,"WEEK 18 (T)",126,"2014-03-17","2014-03-17"
"1284","CDISCPILOT01","SV","01-705-1292",11,"WEEK 20",140,"2014-03-31","2014-03-31"
"1285","CDISCPILOT01","SV","01-705-1292",11.1,"WEEK 22 (T)",154,"2014-04-14","2014-04-14"
"1286","CDISCPILOT01","SV","01-705-1292",12,"WEEK 24",168,"2014-04-28","2014-04-28"
"1287","CDISCPILOT01","SV","01-705-1292",13,"WEEK 26",182,"2014-05-14","2014-05-14"
"1288","CDISCPILOT01","SV","01-705-1303",1,"SCREENING 1",-7,"2013-12-10","2013-12-10"
"1289","CDISCPILOT01","SV","01-705-1303",2,"SCREENING 2",-1,"2013-12-14","2013-12-14"
"1290","CDISCPILOT01","SV","01-705-1303",3,"BASELINE",1,"2013-12-16","2013-12-16"
"1291","CDISCPILOT01","SV","01-705-1303",3.5,"AMBUL ECG PLACEMENT",13,"2013-12-29","2013-12-29"
"1292","CDISCPILOT01","SV","01-705-1303",4,"WEEK 2",14,"2013-12-30","2013-12-30"
"1293","CDISCPILOT01","SV","01-705-1303",5,"WEEK 4",28,"2014-01-12","2014-01-12"
"1294","CDISCPILOT01","SV","01-705-1303",6,"AMBUL ECG REMOVAL",30,"2014-01-14","2014-01-14"
"1295","CDISCPILOT01","SV","01-705-1303",7,"WEEK 6",42,"2014-01-26","2014-01-26"
"1296","CDISCPILOT01","SV","01-705-1303",8,"WEEK 8",56,"2014-02-10","2014-02-10"
"1297","CDISCPILOT01","SV","01-705-1303",8.1,"WEEK 10 (T)",70,"2014-02-24","2014-02-24"
"1298","CDISCPILOT01","SV","01-705-1303",9,"WEEK 12",84,"2014-03-03","2014-03-03"
"1299","CDISCPILOT01","SV","01-705-1303",9.1,"WEEK 14 (T)",98,"2014-03-17","2014-03-17"
"1300","CDISCPILOT01","SV","01-705-1303",10,"WEEK 16",112,"2014-04-07","2014-04-07"
"1301","CDISCPILOT01","SV","01-705-1303",10.1,"WEEK 18 (T)",126,"2014-04-21","2014-04-21"
"1302","CDISCPILOT01","SV","01-705-1303",11,"WEEK 20",140,"2014-06-02","2014-06-02"
"1303","CDISCPILOT01","SV","01-705-1310",1,"SCREENING 1",-7,"2013-10-26","2013-10-26"
"1304","CDISCPILOT01","SV","01-705-1310",2,"SCREENING 2",-1,"2013-10-31","2013-10-31"
"1305","CDISCPILOT01","SV","01-705-1310",3,"BASELINE",1,"2013-11-02","2013-11-02"
"1306","CDISCPILOT01","SV","01-705-1310",3.5,"AMBUL ECG PLACEMENT",13,"2013-11-21","2013-11-21"
"1307","CDISCPILOT01","SV","01-705-1310",4,"WEEK 2",14,"2013-11-22","2013-11-22"
"1308","CDISCPILOT01","SV","01-705-1310",5,"WEEK 4",28,"2013-11-30","2013-11-30"
"1309","CDISCPILOT01","SV","01-705-1310",6,"AMBUL ECG REMOVAL",30,"2013-12-02","2013-12-02"
"1310","CDISCPILOT01","SV","01-705-1310",7,"WEEK 6",42,"2013-12-16","2013-12-16"
"1311","CDISCPILOT01","SV","01-705-1310",8,"WEEK 8",56,"2013-12-26","2013-12-26"
"1312","CDISCPILOT01","SV","01-705-1310",8.1,"WEEK 10 (T)",70,"2014-01-10","2014-01-10"
"1313","CDISCPILOT01","SV","01-705-1310",8.2,"UNSCHEDULED 8.2",NA,"2014-01-10","2014-01-10"
"1314","CDISCPILOT01","SV","01-705-1310",9,"WEEK 12",84,"2014-01-23","2014-01-23"
"1315","CDISCPILOT01","SV","01-705-1310",101,"AE FOLLOW-UP",NA,"2014-02-24","2014-02-24"
"1316","CDISCPILOT01","SV","01-705-1349",1,"SCREENING 1",-7,"2013-02-24","2013-02-24"
"1317","CDISCPILOT01","SV","01-705-1349",1.1,"UNSCHEDULED 1.1",NA,"2013-03-03","2013-03-03"
"1318","CDISCPILOT01","SV","01-705-1349",2,"SCREENING 2",-1,"2013-03-08","2013-03-08"
"1319","CDISCPILOT01","SV","01-705-1349",3,"BASELINE",1,"2013-03-10","2013-03-10"
"1320","CDISCPILOT01","SV","01-705-1349",3.5,"AMBUL ECG PLACEMENT",13,"2013-03-23","2013-03-23"
"1321","CDISCPILOT01","SV","01-705-1349",4,"WEEK 2",14,"2013-03-24","2013-03-24"
"1322","CDISCPILOT01","SV","01-705-1349",5,"WEEK 4",28,"2013-04-04","2013-04-04"
"1323","CDISCPILOT01","SV","01-705-1349",6,"AMBUL ECG REMOVAL",30,"2013-04-17","2013-04-17"
"1324","CDISCPILOT01","SV","01-705-1349",7,"WEEK 6",42,"2013-04-17","2013-04-17"
"1325","CDISCPILOT01","SV","01-705-1349",8,"WEEK 8",56,"2013-05-01","2013-05-01"
"1326","CDISCPILOT01","SV","01-705-1349",8.1,"WEEK 10 (T)",70,"2013-05-15","2013-05-15"
"1327","CDISCPILOT01","SV","01-705-1349",9,"WEEK 12",84,"2013-05-28","2013-05-28"
"1328","CDISCPILOT01","SV","01-705-1349",9.1,"WEEK 14 (T)",98,"2013-06-11","2013-06-11"
"1329","CDISCPILOT01","SV","01-705-1349",10,"WEEK 16",112,"2013-06-25","2013-06-25"
"1330","CDISCPILOT01","SV","01-705-1349",10.1,"WEEK 18 (T)",126,"2013-07-09","2013-07-09"
"1331","CDISCPILOT01","SV","01-705-1349",11,"WEEK 20",140,"2013-07-23","2013-07-23"
"1332","CDISCPILOT01","SV","01-705-1349",11.1,"WEEK 22 (T)",154,"2013-08-06","2013-08-06"
"1333","CDISCPILOT01","SV","01-705-1349",12,"WEEK 24",168,"2013-08-25","2013-08-25"
"1334","CDISCPILOT01","SV","01-705-1349",13,"WEEK 26",182,"2013-09-08","2013-09-08"
"1335","CDISCPILOT01","SV","01-705-1377",1,"SCREENING 1",-7,"2013-12-29","2013-12-29"
"1336","CDISCPILOT01","SV","01-705-1377",2,"SCREENING 2",-1,"2014-01-02","2014-01-02"
"1337","CDISCPILOT01","SV","01-705-1377",3,"BASELINE",1,"2014-01-04","2014-01-04"
"1338","CDISCPILOT01","SV","01-705-1377",3.5,"AMBUL ECG PLACEMENT",13,"2014-01-24","2014-01-24"
"1339","CDISCPILOT01","SV","01-705-1377",4,"WEEK 2",14,"2014-01-25","2014-01-25"
"1340","CDISCPILOT01","SV","01-705-1377",5,"WEEK 4",28,"2014-02-07","2014-02-07"
"1341","CDISCPILOT01","SV","01-705-1377",6,"AMBUL ECG REMOVAL",30,"2014-02-09","2014-02-09"
"1342","CDISCPILOT01","SV","01-705-1377",7,"WEEK 6",42,"2014-03-07","2014-03-07"
"1343","CDISCPILOT01","SV","01-705-1382",1,"SCREENING 1",-7,"2013-05-09","2013-05-09"
"1344","CDISCPILOT01","SV","01-705-1382",2,"SCREENING 2",-1,"2013-05-11","2013-05-11"
"1345","CDISCPILOT01","SV","01-705-1382",3,"BASELINE",1,"2013-05-13","2013-05-13"
"1346","CDISCPILOT01","SV","01-705-1382",4,"WEEK 2",14,"2013-05-13","2013-05-13"
"1347","CDISCPILOT01","SV","01-705-1393",1,"SCREENING 1",-7,"2012-09-02","2012-09-02"
"1348","CDISCPILOT01","SV","01-705-1393",1.1,"UNSCHEDULED 1.1",NA,"2012-09-05","2012-09-05"
"1349","CDISCPILOT01","SV","01-705-1393",2,"SCREENING 2",-1,"2012-09-05","2012-09-05"
"1350","CDISCPILOT01","SV","01-705-1393",3,"BASELINE",1,"2012-09-07","2012-09-07"
"1351","CDISCPILOT01","SV","01-705-1393",3.5,"AMBUL ECG PLACEMENT",13,"2012-09-26","2012-09-26"
"1352","CDISCPILOT01","SV","01-705-1393",4,"WEEK 2",14,"2012-09-27","2012-09-27"
"1353","CDISCPILOT01","SV","01-705-1393",5,"WEEK 4",28,"2012-10-10","2012-10-10"
"1354","CDISCPILOT01","SV","01-705-1393",6,"AMBUL ECG REMOVAL",30,"2012-10-12","2012-10-12"
"1355","CDISCPILOT01","SV","01-705-1393",7,"WEEK 6",42,"2012-10-26","2012-10-26"
"1356","CDISCPILOT01","SV","01-705-1393",8,"WEEK 8",56,"2012-11-02","2012-11-02"
"1357","CDISCPILOT01","SV","01-705-1393",8.1,"WEEK 10 (T)",70,"2012-11-16","2012-11-16"
"1358","CDISCPILOT01","SV","01-705-1393",9,"WEEK 12",84,"2012-12-05","2012-12-05"
"1359","CDISCPILOT01","SV","01-705-1393",9.1,"WEEK 14 (T)",98,"2012-12-20","2012-12-20"
"1360","CDISCPILOT01","SV","01-705-1393",10,"WEEK 16",112,"2013-01-02","2013-01-02"
"1361","CDISCPILOT01","SV","01-705-1393",10.1,"WEEK 18 (T)",126,"2013-01-16","2013-01-16"
"1362","CDISCPILOT01","SV","01-705-1393",11,"WEEK 20",140,"2013-02-20","2013-02-20"
"1363","CDISCPILOT01","SV","01-705-1393",101,"AE FOLLOW-UP",NA,"2013-04-25","2013-04-25"
"1364","CDISCPILOT01","SV","01-705-1421",1,"SCREENING 1",-7,"2013-01-14","2013-01-14"
"1365","CDISCPILOT01","SV","01-705-1431",1,"SCREENING 1",-7,"2013-06-16","2013-06-16"
"1366","CDISCPILOT01","SV","01-705-1431",2,"SCREENING 2",-1,"2013-06-21","2013-06-21"
"1367","CDISCPILOT01","SV","01-705-1431",3,"BASELINE",1,"2013-06-23","2013-06-23"
"1368","CDISCPILOT01","SV","01-705-1431",3.5,"AMBUL ECG PLACEMENT",13,"2013-07-06","2013-07-06"
"1369","CDISCPILOT01","SV","01-705-1431",4,"WEEK 2",14,"2013-07-07","2013-07-07"
"1370","CDISCPILOT01","SV","01-705-1431",5,"WEEK 4",28,"2013-07-20","2013-07-20"
"1371","CDISCPILOT01","SV","01-705-1431",6,"AMBUL ECG REMOVAL",30,"2013-07-22","2013-07-22"
"1372","CDISCPILOT01","SV","01-705-1431",7,"WEEK 6",42,"2013-08-07","2013-08-07"
"1373","CDISCPILOT01","SV","01-705-1431",8,"WEEK 8",56,"2013-08-21","2013-08-21"
"1374","CDISCPILOT01","SV","01-705-1431",8.1,"WEEK 10 (T)",70,"2013-09-04","2013-09-04"
"1375","CDISCPILOT01","SV","01-705-1431",9,"WEEK 12",84,"2013-09-18","2013-09-18"
"1376","CDISCPILOT01","SV","01-705-1431",9.1,"WEEK 14 (T)",98,"2013-10-02","2013-10-02"
"1377","CDISCPILOT01","SV","01-705-1431",10,"WEEK 16",112,"2013-10-17","2013-10-17"
"1378","CDISCPILOT01","SV","01-705-1431",10.1,"WEEK 18 (T)",126,"2013-10-30","2013-10-30"
"1379","CDISCPILOT01","SV","01-705-1431",11,"WEEK 20",140,"2013-11-13","2013-11-13"
"1380","CDISCPILOT01","SV","01-705-1431",11.1,"WEEK 22 (T)",154,"2013-11-27","2013-11-27"
"1381","CDISCPILOT01","SV","01-705-1431",12,"WEEK 24",168,"2013-12-05","2013-12-05"
"1382","CDISCPILOT01","SV","01-705-1431",13,"WEEK 26",182,"2013-12-19","2013-12-19"
"1383","CDISCPILOT01","SV","01-706-1041",1,"SCREENING 1",-7,"2013-12-21","2013-12-21"
"1384","CDISCPILOT01","SV","01-706-1041",2,"SCREENING 2",-1,"2013-12-28","2013-12-28"
"1385","CDISCPILOT01","SV","01-706-1041",3,"BASELINE",1,"2013-12-31","2013-12-31"
"1386","CDISCPILOT01","SV","01-706-1041",3.5,"AMBUL ECG PLACEMENT",13,"2014-01-11","2014-01-11"
"1387","CDISCPILOT01","SV","01-706-1041",4,"WEEK 2",14,"2014-01-14","2014-01-14"
"1388","CDISCPILOT01","SV","01-706-1041",5,"WEEK 4",28,"2014-01-28","2014-01-28"
"1389","CDISCPILOT01","SV","01-706-1041",6,"AMBUL ECG REMOVAL",30,"2014-01-30","2014-01-30"
"1390","CDISCPILOT01","SV","01-706-1041",7,"WEEK 6",42,"2014-02-11","2014-02-11"
"1391","CDISCPILOT01","SV","01-706-1041",8,"WEEK 8",56,"2014-03-04","2014-03-04"
"1392","CDISCPILOT01","SV","01-706-1041",8.1,"WEEK 10 (T)",70,"2014-03-18","2014-03-18"
"1393","CDISCPILOT01","SV","01-706-1041",9,"WEEK 12",84,"2014-04-01","2014-04-01"
"1394","CDISCPILOT01","SV","01-706-1041",9.1,"WEEK 14 (T)",98,"2014-04-22","2014-04-22"
"1395","CDISCPILOT01","SV","01-706-1041",10,"WEEK 16",112,"2014-05-06","2014-05-06"
"1396","CDISCPILOT01","SV","01-706-1041",10.1,"WEEK 18 (T)",126,"2014-05-20","2014-05-20"
"1397","CDISCPILOT01","SV","01-706-1041",11,"WEEK 20",140,"2014-06-10","2014-06-10"
"1398","CDISCPILOT01","SV","01-706-1041",11.1,"WEEK 22 (T)",154,"2014-06-26","2014-06-26"
"1399","CDISCPILOT01","SV","01-706-1041",12,"WEEK 24",168,"2014-07-15","2014-07-15"
"1400","CDISCPILOT01","SV","01-706-1041",13,"WEEK 26",182,"2014-07-29","2014-07-29"
"1401","CDISCPILOT01","SV","01-706-1049",1,"SCREENING 1",-7,"2013-04-30","2013-04-30"
"1402","CDISCPILOT01","SV","01-706-1049",2,"SCREENING 2",-1,"2013-05-11","2013-05-11"
"1403","CDISCPILOT01","SV","01-706-1049",3,"BASELINE",1,"2013-05-14","2013-05-14"
"1404","CDISCPILOT01","SV","01-706-1049",3.5,"AMBUL ECG PLACEMENT",13,"2013-05-25","2013-05-25"
"1405","CDISCPILOT01","SV","01-706-1049",4,"WEEK 2",14,"2013-05-28","2013-05-28"
"1406","CDISCPILOT01","SV","01-706-1049",5,"WEEK 4",28,"2013-06-11","2013-06-11"
"1407","CDISCPILOT01","SV","01-706-1049",6,"AMBUL ECG REMOVAL",30,"2013-06-13","2013-06-13"
"1408","CDISCPILOT01","SV","01-706-1049",7,"WEEK 6",42,"2013-06-25","2013-06-25"
"1409","CDISCPILOT01","SV","01-706-1049",101,"AE FOLLOW-UP",NA,"2013-08-20","2013-08-20"
"1410","CDISCPILOT01","SV","01-706-1049",201,"RETRIEVAL",168,"2013-11-26","2013-11-26"
"1411","CDISCPILOT01","SV","01-706-1384",1,"SCREENING 1",-7,"2012-08-25","2012-08-25"
"1412","CDISCPILOT01","SV","01-706-1384",1.1,"UNSCHEDULED 1.1",NA,"2012-08-28","2012-08-28"
"1413","CDISCPILOT01","SV","01-706-1384",2,"SCREENING 2",-1,"2012-09-12","2012-09-12"
"1414","CDISCPILOT01","SV","01-706-1384",3,"BASELINE",1,"2012-09-15","2012-09-15"
"1415","CDISCPILOT01","SV","01-706-1384",4,"WEEK 2",14,"2012-09-29","2012-09-29"
"1416","CDISCPILOT01","SV","01-706-1384",201,"RETRIEVAL",168,"2013-06-22","2013-06-22"
"1417","CDISCPILOT01","SV","01-707-1037",1,"SCREENING 1",-7,"2013-12-12","2013-12-12"
"1418","CDISCPILOT01","SV","01-707-1037",2,"SCREENING 2",-1,"2013-12-18","2013-12-18"
"1419","CDISCPILOT01","SV","01-707-1037",3,"BASELINE",1,"2013-12-20","2013-12-20"
"1420","CDISCPILOT01","SV","01-707-1037",4,"WEEK 2",14,"2014-01-08","2014-01-08"
"1421","CDISCPILOT01","SV","01-707-1206",1,"SCREENING 1",-7,"2013-10-20","2013-10-20"
"1422","CDISCPILOT01","SV","01-707-1206",2,"SCREENING 2",-1,"2013-10-26","2013-10-26"
"1423","CDISCPILOT01","SV","01-707-1206",3,"BASELINE",1,"2013-10-28","2013-10-28"
"1424","CDISCPILOT01","SV","01-707-1206",3.5,"AMBUL ECG PLACEMENT",13,"2013-11-11","2013-11-11"
"1425","CDISCPILOT01","SV","01-707-1206",4,"WEEK 2",14,"2013-11-12","2013-11-12"
"1426","CDISCPILOT01","SV","01-707-1206",5,"WEEK 4",28,"2013-11-25","2013-11-25"
"1427","CDISCPILOT01","SV","01-707-1206",6,"AMBUL ECG REMOVAL",30,"2013-11-27","2013-11-27"
"1428","CDISCPILOT01","SV","01-707-1206",7,"WEEK 6",42,"2013-12-09","2013-12-09"
"1429","CDISCPILOT01","SV","01-707-1206",8,"WEEK 8",56,"2013-12-23","2013-12-23"
"1430","CDISCPILOT01","SV","01-707-1206",8.1,"WEEK 10 (T)",70,"2014-01-05","2014-01-05"
"1431","CDISCPILOT01","SV","01-707-1206",9,"WEEK 12",84,"2014-01-19","2014-01-19"
"1432","CDISCPILOT01","SV","01-707-1206",9.1,"WEEK 14 (T)",98,"2014-02-02","2014-02-02"
"1433","CDISCPILOT01","SV","01-707-1206",10,"WEEK 16",112,"2014-02-16","2014-02-16"
"1434","CDISCPILOT01","SV","01-707-1206",10.1,"WEEK 18 (T)",126,"2014-03-01","2014-03-01"
"1435","CDISCPILOT01","SV","01-707-1206",11,"WEEK 20",140,"2014-03-16","2014-03-16"
"1436","CDISCPILOT01","SV","01-707-1206",11.1,"WEEK 22 (T)",154,"2014-03-30","2014-03-30"
"1437","CDISCPILOT01","SV","01-707-1206",12,"WEEK 24",168,"2014-04-13","2014-04-13"
"1438","CDISCPILOT01","SV","01-707-1206",13,"WEEK 26",182,"2014-04-27","2014-04-27"
"1439","CDISCPILOT01","SV","01-707-1276",1,"SCREENING 1",-7,"2012-10-12","2012-10-12"
"1440","CDISCPILOT01","SV","01-707-1430",1,"SCREENING 1",-7,"2014-02-14","2014-02-14"
"1441","CDISCPILOT01","SV","01-707-1434",1,"SCREENING 1",-7,"2013-07-25","2013-07-25"
"1442","CDISCPILOT01","SV","01-708-1013",1,"SCREENING 1",-7,"2012-10-13","2012-10-13"
"1443","CDISCPILOT01","SV","01-708-1019",1,"SCREENING 1",-7,"2013-12-10","2013-12-10"
"1444","CDISCPILOT01","SV","01-708-1019",2,"SCREENING 2",-1,"2013-12-17","2013-12-17"
"1445","CDISCPILOT01","SV","01-708-1019",3,"BASELINE",1,"2013-12-20","2013-12-20"
"1446","CDISCPILOT01","SV","01-708-1019",4,"WEEK 2",14,"2014-01-23","2014-01-23"
"1447","CDISCPILOT01","SV","01-708-1032",1,"SCREENING 1",-7,"2013-02-02","2013-02-02"
"1448","CDISCPILOT01","SV","01-708-1032",2,"SCREENING 2",-1,"2013-02-07","2013-02-07"
"1449","CDISCPILOT01","SV","01-708-1032",3,"BASELINE",1,"2013-02-09","2013-02-09"
"1450","CDISCPILOT01","SV","01-708-1032",3.5,"AMBUL ECG PLACEMENT",13,"2013-02-22","2013-02-22"
"1451","CDISCPILOT01","SV","01-708-1032",4,"WEEK 2",14,"2013-02-23","2013-02-23"
"1452","CDISCPILOT01","SV","01-708-1032",5,"WEEK 4",28,"2013-03-09","2013-03-09"
"1453","CDISCPILOT01","SV","01-708-1054",1,"SCREENING 1",-7,"2014-02-14","2014-02-14"
"1454","CDISCPILOT01","SV","01-708-1067",1,"SCREENING 1",-7,"2013-02-07","2013-02-07"
"1455","CDISCPILOT01","SV","01-708-1084",1,"SCREENING 1",-7,"2013-05-01","2013-05-01"
"1456","CDISCPILOT01","SV","01-708-1084",2,"SCREENING 2",-1,"2013-05-06","2013-05-06"
"1457","CDISCPILOT01","SV","01-708-1084",3,"BASELINE",1,"2013-05-09","2013-05-09"
"1458","CDISCPILOT01","SV","01-708-1084",3.5,"AMBUL ECG PLACEMENT",13,"2013-05-23","2013-05-23"
"1459","CDISCPILOT01","SV","01-708-1084",4,"WEEK 2",14,"2013-05-23","2013-05-23"
"1460","CDISCPILOT01","SV","01-708-1084",5,"WEEK 4",28,"2013-06-09","2013-06-09"
"1461","CDISCPILOT01","SV","01-708-1084",6,"AMBUL ECG REMOVAL",30,"2013-06-11","2013-06-11"
"1462","CDISCPILOT01","SV","01-708-1084",7,"WEEK 6",42,"2013-06-23","2013-06-23"
"1463","CDISCPILOT01","SV","01-708-1084",8,"WEEK 8",56,"2013-07-07","2013-07-07"
"1464","CDISCPILOT01","SV","01-708-1084",8.1,"WEEK 10 (T)",70,"2013-07-21","2013-07-21"
"1465","CDISCPILOT01","SV","01-708-1084",9,"WEEK 12",84,"2013-08-01","2013-08-01"
"1466","CDISCPILOT01","SV","01-708-1084",9.1,"WEEK 14 (T)",98,"2013-08-19","2013-08-19"
"1467","CDISCPILOT01","SV","01-708-1084",9.2,"UNSCHEDULED 9.2",NA,"2013-08-19","2013-08-19"
"1468","CDISCPILOT01","SV","01-708-1084",10,"WEEK 16",112,"2013-09-01","2013-09-01"
"1469","CDISCPILOT01","SV","01-708-1084",10.1,"WEEK 18 (T)",126,"2013-09-15","2013-09-15"
"1470","CDISCPILOT01","SV","01-708-1084",11,"WEEK 20",140,"2013-10-01","2013-10-01"
"1471","CDISCPILOT01","SV","01-708-1084",11.1,"WEEK 22 (T)",154,"2013-10-15","2013-10-15"
"1472","CDISCPILOT01","SV","01-708-1084",12,"WEEK 24",168,"2013-10-28","2013-10-28"
"1473","CDISCPILOT01","SV","01-708-1084",13,"WEEK 26",182,"2013-11-11","2013-11-11"
"1474","CDISCPILOT01","SV","01-708-1087",1,"SCREENING 1",-7,"2012-10-06","2012-10-06"
"1475","CDISCPILOT01","SV","01-708-1087",2,"SCREENING 2",-1,"2012-10-20","2012-10-20"
"1476","CDISCPILOT01","SV","01-708-1087",3,"BASELINE",1,"2012-10-22","2012-10-22"
"1477","CDISCPILOT01","SV","01-708-1087",3.5,"AMBUL ECG PLACEMENT",13,"2012-11-04","2012-11-04"
"1478","CDISCPILOT01","SV","01-708-1087",4,"WEEK 2",14,"2012-11-05","2012-11-05"
"1479","CDISCPILOT01","SV","01-708-1087",5,"WEEK 4",28,"2012-11-20","2012-11-20"
"1480","CDISCPILOT01","SV","01-708-1087",6,"AMBUL ECG REMOVAL",30,"2012-11-25","2012-11-25"
"1481","CDISCPILOT01","SV","01-708-1087",7,"WEEK 6",42,"2012-12-08","2012-12-08"
"1482","CDISCPILOT01","SV","01-708-1087",8,"WEEK 8",56,"2012-12-22","2012-12-22"
"1483","CDISCPILOT01","SV","01-708-1087",8.1,"WEEK 10 (T)",70,"2013-01-05","2013-01-05"
"1484","CDISCPILOT01","SV","01-708-1087",9,"WEEK 12",84,"2013-01-19","2013-01-19"
"1485","CDISCPILOT01","SV","01-708-1087",9.1,"WEEK 14 (T)",98,"2013-02-02","2013-02-02"
"1486","CDISCPILOT01","SV","01-708-1087",10,"WEEK 16",112,"2013-02-16","2013-02-16"
"1487","CDISCPILOT01","SV","01-708-1087",10.1,"WEEK 18 (T)",126,"2013-03-02","2013-03-02"
"1488","CDISCPILOT01","SV","01-708-1087",11,"WEEK 20",140,"2013-03-16","2013-03-16"
"1489","CDISCPILOT01","SV","01-708-1087",11.1,"WEEK 22 (T)",154,"2013-03-30","2013-03-30"
"1490","CDISCPILOT01","SV","01-708-1087",12,"WEEK 24",168,"2013-04-10","2013-04-10"
"1491","CDISCPILOT01","SV","01-708-1087",13,"WEEK 26",182,"2013-04-28","2013-04-28"
"1492","CDISCPILOT01","SV","01-708-1104",1,"SCREENING 1",-7,"2014-01-23","2014-01-23"
"1493","CDISCPILOT01","SV","01-708-1158",1,"SCREENING 1",-7,"2014-02-01","2014-02-01"
"1494","CDISCPILOT01","SV","01-708-1158",1.1,"UNSCHEDULED 1.1",NA,"2014-02-01","2014-02-01"
"1495","CDISCPILOT01","SV","01-708-1158",1.2,"UNSCHEDULED 1.2",NA,"2014-02-26","2014-02-26"
"1496","CDISCPILOT01","SV","01-708-1158",2,"SCREENING 2",-1,"2014-02-06","2014-02-06"
"1497","CDISCPILOT01","SV","01-708-1158",3,"BASELINE",1,"2014-02-08","2014-02-08"
"1498","CDISCPILOT01","SV","01-708-1158",3.5,"AMBUL ECG PLACEMENT",13,"2014-02-25","2014-02-25"
"1499","CDISCPILOT01","SV","01-708-1158",4,"WEEK 2",14,"2014-02-26","2014-02-26"
"1500","CDISCPILOT01","SV","01-708-1158",5,"WEEK 4",28,"2014-03-06","2014-03-06"
"1501","CDISCPILOT01","SV","01-708-1158",6,"AMBUL ECG REMOVAL",30,"2014-03-08","2014-03-08"
"1502","CDISCPILOT01","SV","01-708-1158",7,"WEEK 6",42,"2014-03-22","2014-03-22"
"1503","CDISCPILOT01","SV","01-708-1171",1,"SCREENING 1",-7,"2012-11-25","2012-11-25"
"1504","CDISCPILOT01","SV","01-708-1171",2,"SCREENING 2",-1,"2012-12-02","2012-12-02"
"1505","CDISCPILOT01","SV","01-708-1171",3,"BASELINE",1,"2012-12-06","2012-12-06"
"1506","CDISCPILOT01","SV","01-708-1171",3.5,"AMBUL ECG PLACEMENT",13,"2012-12-17","2012-12-17"
"1507","CDISCPILOT01","SV","01-708-1171",4,"WEEK 2",14,"2012-12-18","2012-12-18"
"1508","CDISCPILOT01","SV","01-708-1171",5,"WEEK 4",28,"2012-12-31","2012-12-31"
"1509","CDISCPILOT01","SV","01-708-1171",6,"AMBUL ECG REMOVAL",30,"2013-01-02","2013-01-02"
"1510","CDISCPILOT01","SV","01-708-1171",7,"WEEK 6",42,"2013-01-14","2013-01-14"
"1511","CDISCPILOT01","SV","01-708-1171",8,"WEEK 8",56,"2013-01-28","2013-01-28"
"1512","CDISCPILOT01","SV","01-708-1171",8.1,"WEEK 10 (T)",70,"2013-02-11","2013-02-11"
"1513","CDISCPILOT01","SV","01-708-1171",9,"WEEK 12",84,"2013-02-25","2013-02-25"
"1514","CDISCPILOT01","SV","01-708-1171",9.1,"WEEK 14 (T)",98,"2013-03-11","2013-03-11"
"1515","CDISCPILOT01","SV","01-708-1171",10,"WEEK 16",112,"2013-03-25","2013-03-25"
"1516","CDISCPILOT01","SV","01-708-1171",10.1,"WEEK 18 (T)",126,"2013-04-08","2013-04-08"
"1517","CDISCPILOT01","SV","01-708-1171",11,"WEEK 20",140,"2013-04-22","2013-04-22"
"1518","CDISCPILOT01","SV","01-708-1171",11.1,"WEEK 22 (T)",154,"2013-05-02","2013-05-02"
"1519","CDISCPILOT01","SV","01-708-1171",12,"WEEK 24",168,"2013-05-20","2013-05-20"
"1520","CDISCPILOT01","SV","01-708-1171",13,"WEEK 26",182,"2013-06-04","2013-06-04"
"1521","CDISCPILOT01","SV","01-708-1178",1,"SCREENING 1",-7,"2013-12-13","2013-12-13"
"1522","CDISCPILOT01","SV","01-708-1178",1.1,"UNSCHEDULED 1.1",NA,"2013-12-19","2013-12-19"
"1523","CDISCPILOT01","SV","01-708-1178",1.2,"UNSCHEDULED 1.2",NA,"2013-12-26","2013-12-26"
"1524","CDISCPILOT01","SV","01-708-1178",2,"SCREENING 2",-1,"2013-12-19","2013-12-19"
"1525","CDISCPILOT01","SV","01-708-1178",3,"BASELINE",1,"2013-12-29","2013-12-29"
"1526","CDISCPILOT01","SV","01-708-1178",3.5,"AMBUL ECG PLACEMENT",13,"2014-01-09","2014-01-09"
"1527","CDISCPILOT01","SV","01-708-1178",4,"WEEK 2",14,"2014-01-18","2014-01-18"
"1528","CDISCPILOT01","SV","01-708-1178",5,"WEEK 4",28,"2014-02-02","2014-02-02"
"1529","CDISCPILOT01","SV","01-708-1178",6,"AMBUL ECG REMOVAL",30,"2014-02-07","2014-02-07"
"1530","CDISCPILOT01","SV","01-708-1178",7,"WEEK 6",42,"2014-02-23","2014-02-23"
"1531","CDISCPILOT01","SV","01-708-1178",8,"WEEK 8",56,"2014-03-09","2014-03-09"
"1532","CDISCPILOT01","SV","01-708-1178",8.1,"WEEK 10 (T)",70,"2014-03-27","2014-03-27"
"1533","CDISCPILOT01","SV","01-708-1178",9,"WEEK 12",84,"2014-04-06","2014-04-06"
"1534","CDISCPILOT01","SV","01-708-1184",1,"SCREENING 1",-7,"2013-01-14","2013-01-14"
"1535","CDISCPILOT01","SV","01-708-1213",1,"SCREENING 1",-7,"2013-02-01","2013-02-01"
"1536","CDISCPILOT01","SV","01-708-1213",2,"SCREENING 2",-1,"2013-02-07","2013-02-07"
"1537","CDISCPILOT01","SV","01-708-1213",3,"BASELINE",1,"2013-02-09","2013-02-09"
"1538","CDISCPILOT01","SV","01-708-1213",4,"WEEK 2",14,"2013-02-22","2013-02-22"
"1539","CDISCPILOT01","SV","01-708-1213",5,"WEEK 4",28,"2013-02-26","2013-02-26"
"1540","CDISCPILOT01","SV","01-708-1216",1,"SCREENING 1",-7,"2012-10-14","2012-10-14"
"1541","CDISCPILOT01","SV","01-708-1216",2,"SCREENING 2",-1,"2012-10-19","2012-10-19"
"1542","CDISCPILOT01","SV","01-708-1216",3,"BASELINE",1,"2012-10-24","2012-10-24"
"1543","CDISCPILOT01","SV","01-708-1216",3.5,"AMBUL ECG PLACEMENT",13,"2012-11-07","2012-11-07"
"1544","CDISCPILOT01","SV","01-708-1216",4,"WEEK 2",14,"2012-11-08","2012-11-08"
"1545","CDISCPILOT01","SV","01-708-1216",5,"WEEK 4",28,"2012-11-22","2012-11-22"
"1546","CDISCPILOT01","SV","01-708-1216",6,"AMBUL ECG REMOVAL",30,"2012-11-24","2012-11-24"
"1547","CDISCPILOT01","SV","01-708-1216",7,"WEEK 6",42,"2012-12-06","2012-12-06"
"1548","CDISCPILOT01","SV","01-708-1216",101,"AE FOLLOW-UP",NA,"2013-01-09","2013-01-09"
"1549","CDISCPILOT01","SV","01-708-1236",1,"SCREENING 1",-7,"2013-09-08","2013-09-08"
"1550","CDISCPILOT01","SV","01-708-1236",1.1,"UNSCHEDULED 1.1",NA,"2013-09-19","2013-09-19"
"1551","CDISCPILOT01","SV","01-708-1236",2,"SCREENING 2",-1,"2013-09-19","2013-09-19"
"1552","CDISCPILOT01","SV","01-708-1236",3,"BASELINE",1,"2013-09-21","2013-09-21"
"1553","CDISCPILOT01","SV","01-708-1236",4,"WEEK 2",14,"2013-09-26","2013-09-26"
"1554","CDISCPILOT01","SV","01-708-1242",1,"SCREENING 1",-7,"2012-08-13","2012-08-13"
"1555","CDISCPILOT01","SV","01-708-1253",1,"SCREENING 1",-7,"2013-04-26","2013-04-26"
"1556","CDISCPILOT01","SV","01-708-1253",2,"SCREENING 2",-1,"2013-05-05","2013-05-05"
"1557","CDISCPILOT01","SV","01-708-1253",3,"BASELINE",1,"2013-05-07","2013-05-07"
"1558","CDISCPILOT01","SV","01-708-1253",3.5,"AMBUL ECG PLACEMENT",13,"2013-05-20","2013-05-20"
"1559","CDISCPILOT01","SV","01-708-1253",4,"WEEK 2",14,"2013-05-21","2013-05-21"
"1560","CDISCPILOT01","SV","01-708-1253",4.1,"UNSCHEDULED 4.1",NA,"2013-05-21","2013-05-21"
"1561","CDISCPILOT01","SV","01-708-1253",5,"WEEK 4",28,"2013-06-07","2013-06-07"
"1562","CDISCPILOT01","SV","01-708-1253",6,"AMBUL ECG REMOVAL",30,"2013-06-09","2013-06-09"
"1563","CDISCPILOT01","SV","01-708-1253",7,"WEEK 6",42,"2013-06-25","2013-06-25"
"1564","CDISCPILOT01","SV","01-708-1253",8,"WEEK 8",56,"2013-07-09","2013-07-09"
"1565","CDISCPILOT01","SV","01-708-1253",8.1,"WEEK 10 (T)",70,"2013-07-26","2013-07-26"
"1566","CDISCPILOT01","SV","01-708-1253",9,"WEEK 12",84,"2013-08-05","2013-08-05"
"1567","CDISCPILOT01","SV","01-708-1253",9.1,"WEEK 14 (T)",98,"2013-08-20","2013-08-20"
"1568","CDISCPILOT01","SV","01-708-1253",10,"WEEK 16",112,"2013-09-02","2013-09-02"
"1569","CDISCPILOT01","SV","01-708-1253",10.1,"WEEK 18 (T)",126,"2013-09-16","2013-09-16"
"1570","CDISCPILOT01","SV","01-708-1253",11,"WEEK 20",140,"2013-09-29","2013-09-29"
"1571","CDISCPILOT01","SV","01-708-1253",11.1,"WEEK 22 (T)",154,"2013-10-13","2013-10-13"
"1572","CDISCPILOT01","SV","01-708-1253",12,"WEEK 24",168,"2013-10-27","2013-10-27"
"1573","CDISCPILOT01","SV","01-708-1253",13,"WEEK 26",182,"2013-11-05","2013-11-05"
"1574","CDISCPILOT01","SV","01-708-1272",1,"SCREENING 1",-7,"2013-01-22","2013-01-22"
"1575","CDISCPILOT01","SV","01-708-1272",2,"SCREENING 2",-1,"2013-01-30","2013-01-30"
"1576","CDISCPILOT01","SV","01-708-1272",3,"BASELINE",1,"2013-02-06","2013-02-06"
"1577","CDISCPILOT01","SV","01-708-1272",3.5,"AMBUL ECG PLACEMENT",13,"2013-02-19","2013-02-19"
"1578","CDISCPILOT01","SV","01-708-1272",4,"WEEK 2",14,"2013-02-21","2013-02-21"
"1579","CDISCPILOT01","SV","01-708-1272",5,"WEEK 4",28,"2013-03-07","2013-03-07"
"1580","CDISCPILOT01","SV","01-708-1272",6,"AMBUL ECG REMOVAL",30,"2013-03-09","2013-03-09"
"1581","CDISCPILOT01","SV","01-708-1272",7,"WEEK 6",42,"2013-03-20","2013-03-20"
"1582","CDISCPILOT01","SV","01-708-1272",8,"WEEK 8",56,"2013-04-04","2013-04-04"
"1583","CDISCPILOT01","SV","01-708-1286",1,"SCREENING 1",-7,"2013-08-25","2013-08-25"
"1584","CDISCPILOT01","SV","01-708-1286",2,"SCREENING 2",-1,"2013-09-08","2013-09-08"
"1585","CDISCPILOT01","SV","01-708-1286",3,"BASELINE",1,"2013-09-10","2013-09-10"
"1586","CDISCPILOT01","SV","01-708-1286",3.5,"AMBUL ECG PLACEMENT",13,"2013-09-22","2013-09-22"
"1587","CDISCPILOT01","SV","01-708-1286",4,"WEEK 2",14,"2013-09-23","2013-09-23"
"1588","CDISCPILOT01","SV","01-708-1286",5,"WEEK 4",28,"2013-10-07","2013-10-07"
"1589","CDISCPILOT01","SV","01-708-1286",6,"AMBUL ECG REMOVAL",30,"2013-10-09","2013-10-09"
"1590","CDISCPILOT01","SV","01-708-1286",7,"WEEK 6",42,"2013-10-20","2013-10-20"
"1591","CDISCPILOT01","SV","01-708-1286",8,"WEEK 8",56,"2013-11-03","2013-11-03"
"1592","CDISCPILOT01","SV","01-708-1286",8.1,"WEEK 10 (T)",70,"2013-11-17","2013-11-17"
"1593","CDISCPILOT01","SV","01-708-1286",9,"WEEK 12",84,"2013-12-01","2013-12-01"
"1594","CDISCPILOT01","SV","01-708-1286",9.1,"WEEK 14 (T)",98,"2013-12-17","2013-12-17"
"1595","CDISCPILOT01","SV","01-708-1286",10,"WEEK 16",112,"2013-12-29","2013-12-29"
"1596","CDISCPILOT01","SV","01-708-1286",10.1,"WEEK 18 (T)",126,"2014-01-18","2014-01-18"
"1597","CDISCPILOT01","SV","01-708-1286",11,"WEEK 20",140,"2014-02-01","2014-02-01"
"1598","CDISCPILOT01","SV","01-708-1286",11.1,"WEEK 22 (T)",154,"2014-02-17","2014-02-17"
"1599","CDISCPILOT01","SV","01-708-1286",12,"WEEK 24",168,"2014-02-23","2014-02-23"
"1600","CDISCPILOT01","SV","01-708-1286",13,"WEEK 26",182,"2014-03-08","2014-03-08"
"1601","CDISCPILOT01","SV","01-708-1296",1,"SCREENING 1",-7,"2013-06-07","2013-06-07"
"1602","CDISCPILOT01","SV","01-708-1296",2,"SCREENING 2",-1,"2013-06-12","2013-06-12"
"1603","CDISCPILOT01","SV","01-708-1296",3,"BASELINE",1,"2013-06-14","2013-06-14"
"1604","CDISCPILOT01","SV","01-708-1296",3.5,"AMBUL ECG PLACEMENT",13,"2013-06-26","2013-06-26"
"1605","CDISCPILOT01","SV","01-708-1296",4,"WEEK 2",14,"2013-06-27","2013-06-27"
"1606","CDISCPILOT01","SV","01-708-1296",5,"WEEK 4",28,"2013-07-10","2013-07-10"
"1607","CDISCPILOT01","SV","01-708-1296",6,"AMBUL ECG REMOVAL",30,"2013-07-12","2013-07-12"
"1608","CDISCPILOT01","SV","01-708-1296",7,"WEEK 6",42,"2013-07-24","2013-07-24"
"1609","CDISCPILOT01","SV","01-708-1296",8,"WEEK 8",56,"2013-08-07","2013-08-07"
"1610","CDISCPILOT01","SV","01-708-1296",8.1,"WEEK 10 (T)",70,"2013-08-20","2013-08-20"
"1611","CDISCPILOT01","SV","01-708-1296",9,"WEEK 12",84,"2013-09-04","2013-09-04"
"1612","CDISCPILOT01","SV","01-708-1296",9.1,"WEEK 14 (T)",98,"2013-09-18","2013-09-18"
"1613","CDISCPILOT01","SV","01-708-1296",10,"WEEK 16",112,"2013-10-02","2013-10-02"
"1614","CDISCPILOT01","SV","01-708-1296",10.1,"WEEK 18 (T)",126,"2013-10-21","2013-10-21"
"1615","CDISCPILOT01","SV","01-708-1296",11,"WEEK 20",140,"2013-10-30","2013-10-30"
"1616","CDISCPILOT01","SV","01-708-1296",11.1,"WEEK 22 (T)",154,"2013-11-14","2013-11-14"
"1617","CDISCPILOT01","SV","01-708-1296",12,"WEEK 24",168,"2013-11-27","2013-11-27"
"1618","CDISCPILOT01","SV","01-708-1296",13,"WEEK 26",182,"2013-12-12","2013-12-12"
"1619","CDISCPILOT01","SV","01-708-1297",1,"SCREENING 1",-7,"2013-01-15","2013-01-15"
"1620","CDISCPILOT01","SV","01-708-1297",2,"SCREENING 2",-1,"2013-01-23","2013-01-23"
"1621","CDISCPILOT01","SV","01-708-1297",3,"BASELINE",1,"2013-01-25","2013-01-25"
"1622","CDISCPILOT01","SV","01-708-1297",3.5,"AMBUL ECG PLACEMENT",13,"2013-02-07","2013-02-07"
"1623","CDISCPILOT01","SV","01-708-1297",4,"WEEK 2",14,"2013-02-08","2013-02-08"
"1624","CDISCPILOT01","SV","01-708-1297",5,"WEEK 4",28,"2013-02-20","2013-02-20"
"1625","CDISCPILOT01","SV","01-708-1297",6,"AMBUL ECG REMOVAL",30,"2013-02-22","2013-02-22"
"1626","CDISCPILOT01","SV","01-708-1297",7,"WEEK 6",42,"2013-03-06","2013-03-06"
"1627","CDISCPILOT01","SV","01-708-1297",8,"WEEK 8",56,"2013-03-19","2013-03-19"
"1628","CDISCPILOT01","SV","01-708-1297",8.1,"WEEK 10 (T)",70,"2013-04-02","2013-04-02"
"1629","CDISCPILOT01","SV","01-708-1297",9,"WEEK 12",84,"2013-04-16","2013-04-16"
"1630","CDISCPILOT01","SV","01-708-1297",9.1,"WEEK 14 (T)",98,"2013-04-30","2013-04-30"
"1631","CDISCPILOT01","SV","01-708-1297",10,"WEEK 16",112,"2013-05-08","2013-05-08"
"1632","CDISCPILOT01","SV","01-708-1297",101,"AE FOLLOW-UP",NA,"2013-06-07","2013-06-07"
"1633","CDISCPILOT01","SV","01-708-1316",1,"SCREENING 1",-7,"2013-08-15","2013-08-15"
"1634","CDISCPILOT01","SV","01-708-1316",2,"SCREENING 2",-1,"2013-08-22","2013-08-22"
"1635","CDISCPILOT01","SV","01-708-1316",3,"BASELINE",1,"2013-08-23","2013-08-23"
"1636","CDISCPILOT01","SV","01-708-1316",4,"WEEK 2",14,"2013-09-05","2013-09-05"
"1637","CDISCPILOT01","SV","01-708-1316",5,"WEEK 4",28,"2013-09-22","2013-09-22"
"1638","CDISCPILOT01","SV","01-708-1316",7,"WEEK 6",42,"2013-10-10","2013-10-10"
"1639","CDISCPILOT01","SV","01-708-1316",8,"WEEK 8",56,"2013-10-25","2013-10-25"
"1640","CDISCPILOT01","SV","01-708-1316",8.1,"WEEK 10 (T)",70,"2013-11-08","2013-11-08"
"1641","CDISCPILOT01","SV","01-708-1316",9,"WEEK 12",84,"2013-11-22","2013-11-22"
"1642","CDISCPILOT01","SV","01-708-1316",9.1,"WEEK 14 (T)",98,"2013-12-06","2013-12-06"
"1643","CDISCPILOT01","SV","01-708-1316",10,"WEEK 16",112,"2013-12-21","2013-12-21"
"1644","CDISCPILOT01","SV","01-708-1316",10.1,"WEEK 18 (T)",126,"2014-01-05","2014-01-05"
"1645","CDISCPILOT01","SV","01-708-1316",11,"WEEK 20",140,"2014-01-18","2014-01-18"
"1646","CDISCPILOT01","SV","01-708-1316",11.1,"WEEK 22 (T)",154,"2014-02-07","2014-02-07"
"1647","CDISCPILOT01","SV","01-708-1316",12,"WEEK 24",168,"2014-02-15","2014-02-15"
"1648","CDISCPILOT01","SV","01-708-1316",13,"WEEK 26",182,"2014-03-01","2014-03-01"
"1649","CDISCPILOT01","SV","01-708-1336",1,"SCREENING 1",-7,"2012-11-21","2012-11-21"
"1650","CDISCPILOT01","SV","01-708-1336",2,"SCREENING 2",-1,"2012-12-05","2012-12-05"
"1651","CDISCPILOT01","SV","01-708-1336",3,"BASELINE",1,"2012-12-07","2012-12-07"
"1652","CDISCPILOT01","SV","01-708-1336",3.5,"AMBUL ECG PLACEMENT",13,"2012-12-20","2012-12-20"
"1653","CDISCPILOT01","SV","01-708-1336",4,"WEEK 2",14,"2012-12-21","2012-12-21"
"1654","CDISCPILOT01","SV","01-708-1336",5,"WEEK 4",28,"2013-01-01","2013-01-01"
"1655","CDISCPILOT01","SV","01-708-1336",6,"AMBUL ECG REMOVAL",30,"2013-01-03","2013-01-03"
"1656","CDISCPILOT01","SV","01-708-1336",7,"WEEK 6",42,"2013-01-15","2013-01-15"
"1657","CDISCPILOT01","SV","01-708-1336",8,"WEEK 8",56,"2013-01-29","2013-01-29"
"1658","CDISCPILOT01","SV","01-708-1336",8.1,"WEEK 10 (T)",70,"2013-02-08","2013-02-08"
"1659","CDISCPILOT01","SV","01-708-1336",9,"WEEK 12",84,"2013-02-27","2013-02-27"
"1660","CDISCPILOT01","SV","01-708-1336",9.1,"WEEK 14 (T)",98,"2013-03-13","2013-03-13"
"1661","CDISCPILOT01","SV","01-708-1336",10,"WEEK 16",112,"2013-03-27","2013-03-27"
"1662","CDISCPILOT01","SV","01-708-1336",10.1,"WEEK 18 (T)",126,"2013-04-10","2013-04-10"
"1663","CDISCPILOT01","SV","01-708-1336",11,"WEEK 20",140,"2013-04-23","2013-04-23"
"1664","CDISCPILOT01","SV","01-708-1336",11.1,"WEEK 22 (T)",154,"2013-05-07","2013-05-07"
"1665","CDISCPILOT01","SV","01-708-1336",12,"WEEK 24",168,"2013-05-22","2013-05-22"
"1666","CDISCPILOT01","SV","01-708-1336",13,"WEEK 26",182,"2013-06-05","2013-06-05"
"1667","CDISCPILOT01","SV","01-708-1336",101,"AE FOLLOW-UP",NA,"2013-07-05","2013-07-05"
"1668","CDISCPILOT01","SV","01-708-1342",1,"SCREENING 1",-7,"2012-12-21","2012-12-21"
"1669","CDISCPILOT01","SV","01-708-1342",2,"SCREENING 2",-1,"2012-12-27","2012-12-27"
"1670","CDISCPILOT01","SV","01-708-1342",3,"BASELINE",1,"2012-12-29","2012-12-29"
"1671","CDISCPILOT01","SV","01-708-1342",3.5,"AMBUL ECG PLACEMENT",13,"2013-01-11","2013-01-11"
"1672","CDISCPILOT01","SV","01-708-1342",4,"WEEK 2",14,"2013-01-12","2013-01-12"
"1673","CDISCPILOT01","SV","01-708-1342",5,"WEEK 4",28,"2013-01-24","2013-01-24"
"1674","CDISCPILOT01","SV","01-708-1342",6,"AMBUL ECG REMOVAL",30,"2013-01-26","2013-01-26"
"1675","CDISCPILOT01","SV","01-708-1342",7,"WEEK 6",42,"2013-02-07","2013-02-07"
"1676","CDISCPILOT01","SV","01-708-1342",8,"WEEK 8",56,"2013-02-23","2013-02-23"
"1677","CDISCPILOT01","SV","01-708-1342",8.1,"WEEK 10 (T)",70,"2013-03-12","2013-03-12"
"1678","CDISCPILOT01","SV","01-708-1342",9,"WEEK 12",84,"2013-03-21","2013-03-21"
"1679","CDISCPILOT01","SV","01-708-1342",9.1,"WEEK 14 (T)",98,"2013-04-05","2013-04-05"
"1680","CDISCPILOT01","SV","01-708-1342",10,"WEEK 16",112,"2013-04-20","2013-04-20"
"1681","CDISCPILOT01","SV","01-708-1342",10.1,"WEEK 18 (T)",126,"2013-05-04","2013-05-04"
"1682","CDISCPILOT01","SV","01-708-1342",11,"WEEK 20",140,"2013-05-18","2013-05-18"
"1683","CDISCPILOT01","SV","01-708-1342",11.1,"WEEK 22 (T)",154,"2013-06-04","2013-06-04"
"1684","CDISCPILOT01","SV","01-708-1342",12,"WEEK 24",168,"2013-06-15","2013-06-15"
"1685","CDISCPILOT01","SV","01-708-1342",13,"WEEK 26",182,"2013-06-28","2013-06-28"
"1686","CDISCPILOT01","SV","01-708-1347",1,"SCREENING 1",-7,"2013-04-11","2013-04-11"
"1687","CDISCPILOT01","SV","01-708-1347",2,"SCREENING 2",-1,"2013-04-18","2013-04-18"
"1688","CDISCPILOT01","SV","01-708-1347",3,"BASELINE",1,"2013-04-20","2013-04-20"
"1689","CDISCPILOT01","SV","01-708-1347",3.5,"AMBUL ECG PLACEMENT",13,"2013-05-03","2013-05-03"
"1690","CDISCPILOT01","SV","01-708-1347",4,"WEEK 2",14,"2013-05-04","2013-05-04"
"1691","CDISCPILOT01","SV","01-708-1347",5,"WEEK 4",28,"2013-05-16","2013-05-16"
"1692","CDISCPILOT01","SV","01-708-1347",6,"AMBUL ECG REMOVAL",30,"2013-05-18","2013-05-18"
"1693","CDISCPILOT01","SV","01-708-1347",7,"WEEK 6",42,"2013-05-30","2013-05-30"
"1694","CDISCPILOT01","SV","01-708-1347",8,"WEEK 8",56,"2013-06-13","2013-06-13"
"1695","CDISCPILOT01","SV","01-708-1347",9,"WEEK 12",84,"2013-06-18","2013-06-18"
"1696","CDISCPILOT01","SV","01-708-1347",101,"AE FOLLOW-UP",NA,"2013-08-02","2013-08-02"
"1697","CDISCPILOT01","SV","01-708-1348",1,"SCREENING 1",-7,"2013-07-28","2013-07-28"
"1698","CDISCPILOT01","SV","01-708-1348",1.1,"UNSCHEDULED 1.1",NA,"2013-08-03","2013-08-03"
"1699","CDISCPILOT01","SV","01-708-1348",1.2,"UNSCHEDULED 1.2",NA,"2013-07-27","2013-07-27"
"1700","CDISCPILOT01","SV","01-708-1348",2,"SCREENING 2",-1,"2013-08-03","2013-08-03"
"1701","CDISCPILOT01","SV","01-708-1348",3,"BASELINE",1,"2013-08-05","2013-08-05"
"1702","CDISCPILOT01","SV","01-708-1348",3.5,"AMBUL ECG PLACEMENT",13,"2013-08-18","2013-08-18"
"1703","CDISCPILOT01","SV","01-708-1348",4,"WEEK 2",14,"2013-08-19","2013-08-19"
"1704","CDISCPILOT01","SV","01-708-1348",5,"WEEK 4",28,"2013-08-31","2013-08-31"
"1705","CDISCPILOT01","SV","01-708-1348",5.1,"UNSCHEDULED 5.1",NA,"2013-09-02","2013-09-02"
"1706","CDISCPILOT01","SV","01-708-1348",6,"AMBUL ECG REMOVAL",30,"2013-09-02","2013-09-02"
"1707","CDISCPILOT01","SV","01-708-1348",7,"WEEK 6",42,"2013-09-15","2013-09-15"
"1708","CDISCPILOT01","SV","01-708-1348",8,"WEEK 8",56,"2013-10-06","2013-10-06"
"1709","CDISCPILOT01","SV","01-708-1348",8.1,"WEEK 10 (T)",70,"2013-10-21","2013-10-21"
"1710","CDISCPILOT01","SV","01-708-1348",9,"WEEK 12",84,"2013-11-04","2013-11-04"
"1711","CDISCPILOT01","SV","01-708-1348",9.1,"WEEK 14 (T)",98,"2013-11-18","2013-11-18"
"1712","CDISCPILOT01","SV","01-708-1348",10,"WEEK 16",112,"2013-12-01","2013-12-01"
"1713","CDISCPILOT01","SV","01-708-1348",10.1,"WEEK 18 (T)",126,"2013-12-19","2013-12-19"
"1714","CDISCPILOT01","SV","01-708-1348",11,"WEEK 20",140,"2013-12-28","2013-12-28"
"1715","CDISCPILOT01","SV","01-708-1348",11.1,"WEEK 22 (T)",154,"2014-01-16","2014-01-16"
"1716","CDISCPILOT01","SV","01-708-1348",12,"WEEK 24",168,"2014-02-03","2014-02-03"
"1717","CDISCPILOT01","SV","01-708-1348",12.1,"UNSCHEDULED 12.1",NA,"2014-02-03","2014-02-03"
"1718","CDISCPILOT01","SV","01-708-1348",13,"WEEK 26",182,"2014-02-13","2014-02-13"
"1719","CDISCPILOT01","SV","01-708-1352",1,"SCREENING 1",-7,"2013-09-16","2013-09-16"
"1720","CDISCPILOT01","SV","01-708-1353",1,"SCREENING 1",-7,"2013-06-17","2013-06-17"
"1721","CDISCPILOT01","SV","01-708-1353",2,"SCREENING 2",-1,"2013-07-02","2013-07-02"
"1722","CDISCPILOT01","SV","01-708-1353",3,"BASELINE",1,"2013-07-04","2013-07-04"
"1723","CDISCPILOT01","SV","01-708-1353",3.5,"AMBUL ECG PLACEMENT",13,"2013-07-17","2013-07-17"
"1724","CDISCPILOT01","SV","01-708-1353",4,"WEEK 2",14,"2013-07-18","2013-07-18"
"1725","CDISCPILOT01","SV","01-708-1353",5,"WEEK 4",28,"2013-08-04","2013-08-04"
"1726","CDISCPILOT01","SV","01-708-1353",6,"AMBUL ECG REMOVAL",30,"2013-08-07","2013-08-07"
"1727","CDISCPILOT01","SV","01-708-1353",7,"WEEK 6",42,"2013-08-18","2013-08-18"
"1728","CDISCPILOT01","SV","01-708-1353",8,"WEEK 8",56,"2013-09-10","2013-09-10"
"1729","CDISCPILOT01","SV","01-708-1372",1,"SCREENING 1",-7,"2013-04-03","2013-04-03"
"1730","CDISCPILOT01","SV","01-708-1372",2,"SCREENING 2",-1,"2013-04-10","2013-04-10"
"1731","CDISCPILOT01","SV","01-708-1372",3,"BASELINE",1,"2013-04-12","2013-04-12"
"1732","CDISCPILOT01","SV","01-708-1372",4,"WEEK 2",14,"2013-05-10","2013-05-10"
"1733","CDISCPILOT01","SV","01-708-1378",1,"SCREENING 1",-7,"2013-08-24","2013-08-24"
"1734","CDISCPILOT01","SV","01-708-1378",2,"SCREENING 2",-1,"2013-09-01","2013-09-01"
"1735","CDISCPILOT01","SV","01-708-1378",3,"BASELINE",1,"2013-09-03","2013-09-03"
"1736","CDISCPILOT01","SV","01-708-1378",3.5,"AMBUL ECG PLACEMENT",13,"2013-09-20","2013-09-20"
"1737","CDISCPILOT01","SV","01-708-1378",4,"WEEK 2",14,"2013-09-21","2013-09-21"
"1738","CDISCPILOT01","SV","01-708-1378",5,"WEEK 4",28,"2013-10-05","2013-10-05"
"1739","CDISCPILOT01","SV","01-708-1378",7,"WEEK 6",42,"2013-10-19","2013-10-19"
"1740","CDISCPILOT01","SV","01-708-1378",8,"WEEK 8",56,"2013-11-05","2013-11-05"
"1741","CDISCPILOT01","SV","01-708-1378",8.1,"WEEK 10 (T)",70,"2013-11-19","2013-11-19"
"1742","CDISCPILOT01","SV","01-708-1378",9,"WEEK 12",84,"2013-12-02","2013-12-02"
"1743","CDISCPILOT01","SV","01-708-1378",10,"WEEK 16",112,"2014-01-12","2014-01-12"
"1744","CDISCPILOT01","SV","01-708-1378",10.1,"WEEK 18 (T)",126,"2014-01-12","2014-01-12"
"1745","CDISCPILOT01","SV","01-708-1378",11,"WEEK 20",140,"2014-01-28","2014-01-28"
"1746","CDISCPILOT01","SV","01-708-1406",1,"SCREENING 1",-7,"2013-12-06","2013-12-06"
"1747","CDISCPILOT01","SV","01-708-1406",2,"SCREENING 2",-1,"2013-12-24","2013-12-24"
"1748","CDISCPILOT01","SV","01-708-1406",3,"BASELINE",1,"2013-12-26","2013-12-26"
"1749","CDISCPILOT01","SV","01-708-1406",3.5,"AMBUL ECG PLACEMENT",13,"2014-01-08","2014-01-08"
"1750","CDISCPILOT01","SV","01-708-1406",4,"WEEK 2",14,"2014-01-09","2014-01-09"
"1751","CDISCPILOT01","SV","01-708-1406",5,"WEEK 4",28,"2014-01-22","2014-01-22"
"1752","CDISCPILOT01","SV","01-708-1406",6,"AMBUL ECG REMOVAL",30,"2014-01-24","2014-01-24"
"1753","CDISCPILOT01","SV","01-708-1406",7,"WEEK 6",42,"2014-02-10","2014-02-10"
"1754","CDISCPILOT01","SV","01-708-1406",8,"WEEK 8",56,"2014-02-24","2014-02-24"
"1755","CDISCPILOT01","SV","01-708-1406",8.1,"WEEK 10 (T)",70,"2014-03-11","2014-03-11"
"1756","CDISCPILOT01","SV","01-708-1406",9,"WEEK 12",84,"2014-03-19","2014-03-19"
"1757","CDISCPILOT01","SV","01-708-1406",9.1,"WEEK 14 (T)",98,"2014-04-07","2014-04-07"
"1758","CDISCPILOT01","SV","01-708-1406",10,"WEEK 16",112,"2014-04-16","2014-04-16"
"1759","CDISCPILOT01","SV","01-708-1406",10.1,"WEEK 18 (T)",126,"2014-05-06","2014-05-06"
"1760","CDISCPILOT01","SV","01-708-1406",11,"WEEK 20",140,"2014-05-16","2014-05-16"
"1761","CDISCPILOT01","SV","01-708-1406",11.1,"WEEK 22 (T)",154,"2014-05-13","2014-05-13"
"1762","CDISCPILOT01","SV","01-708-1406",12,"WEEK 24",168,"2014-06-16","2014-06-16"
"1763","CDISCPILOT01","SV","01-708-1406",13,"WEEK 26",182,"2014-07-02","2014-07-02"
"1764","CDISCPILOT01","SV","01-708-1428",1,"SCREENING 1",-7,"2013-11-02","2013-11-02"
"1765","CDISCPILOT01","SV","01-708-1428",2,"SCREENING 2",-1,"2013-11-07","2013-11-07"
"1766","CDISCPILOT01","SV","01-708-1428",3,"BASELINE",1,"2013-11-09","2013-11-09"
"1767","CDISCPILOT01","SV","01-708-1428",3.5,"AMBUL ECG PLACEMENT",13,"2013-11-22","2013-11-22"
"1768","CDISCPILOT01","SV","01-708-1428",4,"WEEK 2",14,"2013-11-23","2013-11-23"
"1769","CDISCPILOT01","SV","01-708-1428",5,"WEEK 4",28,"2013-12-10","2013-12-10"
"1770","CDISCPILOT01","SV","01-708-1428",6,"AMBUL ECG REMOVAL",30,"2013-12-12","2013-12-12"
"1771","CDISCPILOT01","SV","01-708-1428",7,"WEEK 6",42,"2013-12-26","2013-12-26"
"1772","CDISCPILOT01","SV","01-708-1428",8,"WEEK 8",56,"2014-01-31","2014-01-31"
"1773","CDISCPILOT01","SV","01-708-1428",101,"AE FOLLOW-UP",NA,"2014-01-31","2014-01-31"
"1774","CDISCPILOT01","SV","01-709-1001",1,"SCREENING 1",-7,"2013-09-20","2013-09-20"
"1775","CDISCPILOT01","SV","01-709-1001",1.1,"UNSCHEDULED 1.1",NA,"2013-10-06","2013-10-06"
"1776","CDISCPILOT01","SV","01-709-1001",2,"SCREENING 2",-1,"2013-10-06","2013-10-06"
"1777","CDISCPILOT01","SV","01-709-1001",3,"BASELINE",1,"2013-10-08","2013-10-08"
"1778","CDISCPILOT01","SV","01-709-1001",3.5,"AMBUL ECG PLACEMENT",13,"2013-10-21","2013-10-21"
"1779","CDISCPILOT01","SV","01-709-1001",4,"WEEK 2",14,"2013-10-22","2013-10-22"
"1780","CDISCPILOT01","SV","01-709-1001",5,"WEEK 4",28,"2013-11-02","2013-11-02"
"1781","CDISCPILOT01","SV","01-709-1001",6,"AMBUL ECG REMOVAL",30,"2013-11-04","2013-11-04"
"1782","CDISCPILOT01","SV","01-709-1001",7,"WEEK 6",42,"2013-11-19","2013-11-19"
"1783","CDISCPILOT01","SV","01-709-1001",8,"WEEK 8",56,"2013-12-03","2013-12-03"
"1784","CDISCPILOT01","SV","01-709-1001",8.1,"WEEK 10 (T)",70,"2013-12-14","2013-12-14"
"1785","CDISCPILOT01","SV","01-709-1001",9,"WEEK 12",84,"2013-12-31","2013-12-31"
"1786","CDISCPILOT01","SV","01-709-1001",9.1,"WEEK 14 (T)",98,"2014-01-11","2014-01-11"
"1787","CDISCPILOT01","SV","01-709-1001",10,"WEEK 16",112,"2014-01-28","2014-01-28"
"1788","CDISCPILOT01","SV","01-709-1001",10.1,"WEEK 18 (T)",126,"2014-02-11","2014-02-11"
"1789","CDISCPILOT01","SV","01-709-1001",11,"WEEK 20",140,"2014-02-25","2014-02-25"
"1790","CDISCPILOT01","SV","01-709-1001",11.1,"WEEK 22 (T)",154,"2014-03-07","2014-03-07"
"1791","CDISCPILOT01","SV","01-709-1001",12,"WEEK 24",168,"2014-03-17","2014-03-17"
"1792","CDISCPILOT01","SV","01-709-1001",13,"WEEK 26",182,"2014-04-08","2014-04-08"
"1793","CDISCPILOT01","SV","01-709-1007",1,"SCREENING 1",-7,"2012-07-21","2012-07-21"
"1794","CDISCPILOT01","SV","01-709-1007",1.1,"UNSCHEDULED 1.1",NA,"2012-07-21","2012-07-21"
"1795","CDISCPILOT01","SV","01-709-1007",2,"SCREENING 2",-1,"2012-07-29","2012-07-29"
"1796","CDISCPILOT01","SV","01-709-1007",3,"BASELINE",1,"2012-07-31","2012-07-31"
"1797","CDISCPILOT01","SV","01-709-1007",3.5,"AMBUL ECG PLACEMENT",13,"2012-08-17","2012-08-17"
"1798","CDISCPILOT01","SV","01-709-1007",4,"WEEK 2",14,"2012-08-18","2012-08-18"
"1799","CDISCPILOT01","SV","01-709-1007",5,"WEEK 4",28,"2012-09-01","2012-09-01"
"1800","CDISCPILOT01","SV","01-709-1007",101,"AE FOLLOW-UP",NA,"2012-09-07","2012-09-07"
"1801","CDISCPILOT01","SV","01-709-1020",1,"SCREENING 1",-7,"2012-11-22","2012-11-22"
"1802","CDISCPILOT01","SV","01-709-1020",2,"SCREENING 2",-1,"2012-11-29","2012-11-29"
"1803","CDISCPILOT01","SV","01-709-1020",3,"BASELINE",1,"2012-12-01","2012-12-01"
"1804","CDISCPILOT01","SV","01-709-1020",4,"WEEK 2",14,"2012-12-15","2012-12-15"
"1805","CDISCPILOT01","SV","01-709-1020",5,"WEEK 4",28,"2012-12-27","2012-12-27"
"1806","CDISCPILOT01","SV","01-709-1020",7,"WEEK 6",42,"2013-01-12","2013-01-12"
"1807","CDISCPILOT01","SV","01-709-1020",8,"WEEK 8",56,"2013-01-26","2013-01-26"
"1808","CDISCPILOT01","SV","01-709-1020",8.1,"WEEK 10 (T)",70,"2013-02-09","2013-02-09"
"1809","CDISCPILOT01","SV","01-709-1020",9,"WEEK 12",84,"2013-02-23","2013-02-23"
"1810","CDISCPILOT01","SV","01-709-1020",9.1,"WEEK 14 (T)",98,"2013-03-08","2013-03-08"
"1811","CDISCPILOT01","SV","01-709-1020",10,"WEEK 16",112,"2013-03-23","2013-03-23"
"1812","CDISCPILOT01","SV","01-709-1020",10.1,"WEEK 18 (T)",126,"2013-04-13","2013-04-13"
"1813","CDISCPILOT01","SV","01-709-1020",11,"WEEK 20",140,"2013-04-20","2013-04-20"
"1814","CDISCPILOT01","SV","01-709-1020",11.1,"WEEK 22 (T)",154,"2013-05-03","2013-05-03"
"1815","CDISCPILOT01","SV","01-709-1020",12,"WEEK 24",168,"2013-05-18","2013-05-18"
"1816","CDISCPILOT01","SV","01-709-1020",13,"WEEK 26",182,"2013-06-01","2013-06-01"
"1817","CDISCPILOT01","SV","01-709-1029",1,"SCREENING 1",-7,"2012-12-10","2012-12-10"
"1818","CDISCPILOT01","SV","01-709-1029",2,"SCREENING 2",-1,"2012-12-23","2012-12-23"
"1819","CDISCPILOT01","SV","01-709-1029",3,"BASELINE",1,"2012-12-25","2012-12-25"
"1820","CDISCPILOT01","SV","01-709-1029",3.5,"AMBUL ECG PLACEMENT",13,"2013-01-08","2013-01-08"
"1821","CDISCPILOT01","SV","01-709-1029",4,"WEEK 2",14,"2013-01-09","2013-01-09"
"1822","CDISCPILOT01","SV","01-709-1029",5,"WEEK 4",28,"2013-01-21","2013-01-21"
"1823","CDISCPILOT01","SV","01-709-1029",6,"AMBUL ECG REMOVAL",30,"2013-01-23","2013-01-23"
"1824","CDISCPILOT01","SV","01-709-1029",7,"WEEK 6",42,"2013-02-06","2013-02-06"
"1825","CDISCPILOT01","SV","01-709-1029",8,"WEEK 8",56,"2013-02-19","2013-02-19"
"1826","CDISCPILOT01","SV","01-709-1029",8.1,"WEEK 10 (T)",70,"2013-03-06","2013-03-06"
"1827","CDISCPILOT01","SV","01-709-1029",9,"WEEK 12",84,"2013-03-20","2013-03-20"
"1828","CDISCPILOT01","SV","01-709-1029",9.1,"WEEK 14 (T)",98,"2013-04-06","2013-04-06"
"1829","CDISCPILOT01","SV","01-709-1029",10,"WEEK 16",112,"2013-04-16","2013-04-16"
"1830","CDISCPILOT01","SV","01-709-1029",10.1,"WEEK 18 (T)",126,"2013-05-01","2013-05-01"
"1831","CDISCPILOT01","SV","01-709-1029",11,"WEEK 20",140,"2013-05-15","2013-05-15"
"1832","CDISCPILOT01","SV","01-709-1029",11.1,"WEEK 22 (T)",154,"2013-05-28","2013-05-28"
"1833","CDISCPILOT01","SV","01-709-1029",12,"WEEK 24",168,"2013-06-12","2013-06-12"
"1834","CDISCPILOT01","SV","01-709-1029",13,"WEEK 26",182,"2013-06-26","2013-06-26"
"1835","CDISCPILOT01","SV","01-709-1081",1,"SCREENING 1",-7,"2014-01-09","2014-01-09"
"1836","CDISCPILOT01","SV","01-709-1081",1.1,"UNSCHEDULED 1.1",NA,"2014-01-05","2014-01-05"
"1837","CDISCPILOT01","SV","01-709-1081",2,"SCREENING 2",-1,"2014-01-17","2014-01-17"
"1838","CDISCPILOT01","SV","01-709-1081",3,"BASELINE",1,"2014-01-18","2014-01-18"
"1839","CDISCPILOT01","SV","01-709-1081",3.5,"AMBUL ECG PLACEMENT",13,"2014-01-31","2014-01-31"
"1840","CDISCPILOT01","SV","01-709-1081",4,"WEEK 2",14,"2014-02-01","2014-02-01"
"1841","CDISCPILOT01","SV","01-709-1081",5,"WEEK 4",28,"2014-02-10","2014-02-10"
"1842","CDISCPILOT01","SV","01-709-1081",6,"AMBUL ECG REMOVAL",30,"2014-02-12","2014-02-12"
"1843","CDISCPILOT01","SV","01-709-1081",7,"WEEK 6",42,"2014-03-01","2014-03-01"
"1844","CDISCPILOT01","SV","01-709-1081",8,"WEEK 8",56,"2014-03-15","2014-03-15"
"1845","CDISCPILOT01","SV","01-709-1081",8.1,"WEEK 10 (T)",70,"2014-03-29","2014-03-29"
"1846","CDISCPILOT01","SV","01-709-1081",9,"WEEK 12",84,"2014-04-21","2014-04-21"
"1847","CDISCPILOT01","SV","01-709-1081",9.1,"WEEK 14 (T)",98,"2014-04-26","2014-04-26"
"1848","CDISCPILOT01","SV","01-709-1081",10,"WEEK 16",112,"2014-05-10","2014-05-10"
"1849","CDISCPILOT01","SV","01-709-1088",1,"SCREENING 1",-7,"2014-03-30","2014-03-30"
"1850","CDISCPILOT01","SV","01-709-1088",2,"SCREENING 2",-1,"2014-04-10","2014-04-10"
"1851","CDISCPILOT01","SV","01-709-1088",3,"BASELINE",1,"2014-04-12","2014-04-12"
"1852","CDISCPILOT01","SV","01-709-1088",3.5,"AMBUL ECG PLACEMENT",13,"2014-04-25","2014-04-25"
"1853","CDISCPILOT01","SV","01-709-1088",4,"WEEK 2",14,"2014-04-26","2014-04-26"
"1854","CDISCPILOT01","SV","01-709-1088",5,"WEEK 4",28,"2014-05-08","2014-05-08"
"1855","CDISCPILOT01","SV","01-709-1088",6,"AMBUL ECG REMOVAL",30,"2014-05-10","2014-05-10"
"1856","CDISCPILOT01","SV","01-709-1088",7,"WEEK 6",42,"2014-05-22","2014-05-22"
"1857","CDISCPILOT01","SV","01-709-1088",8,"WEEK 8",56,"2014-06-01","2014-06-01"
"1858","CDISCPILOT01","SV","01-709-1088",8.1,"WEEK 10 (T)",70,"2014-06-15","2014-06-15"
"1859","CDISCPILOT01","SV","01-709-1088",9,"WEEK 12",84,"2014-06-29","2014-06-29"
"1860","CDISCPILOT01","SV","01-709-1088",9.1,"WEEK 14 (T)",98,"2014-07-10","2014-07-10"
"1861","CDISCPILOT01","SV","01-709-1088",10,"WEEK 16",112,"2014-08-02","2014-08-02"
"1862","CDISCPILOT01","SV","01-709-1088",10.1,"WEEK 18 (T)",126,"2014-08-17","2014-08-17"
"1863","CDISCPILOT01","SV","01-709-1088",11,"WEEK 20",140,"2014-08-23","2014-08-23"
"1864","CDISCPILOT01","SV","01-709-1088",11.1,"WEEK 22 (T)",154,"2014-09-06","2014-09-06"
"1865","CDISCPILOT01","SV","01-709-1088",12,"WEEK 24",168,"2014-09-27","2014-09-27"
"1866","CDISCPILOT01","SV","01-709-1088",13,"WEEK 26",182,"2014-10-09","2014-10-09"
"1867","CDISCPILOT01","SV","01-709-1099",1,"SCREENING 1",-7,"2013-10-14","2013-10-14"
"1868","CDISCPILOT01","SV","01-709-1099",2,"SCREENING 2",-1,"2013-10-23","2013-10-23"
"1869","CDISCPILOT01","SV","01-709-1099",3,"BASELINE",1,"2013-10-25","2013-10-25"
"1870","CDISCPILOT01","SV","01-709-1099",3.5,"AMBUL ECG PLACEMENT",13,"2013-11-11","2013-11-11"
"1871","CDISCPILOT01","SV","01-709-1099",4,"WEEK 2",14,"2013-11-12","2013-11-12"
"1872","CDISCPILOT01","SV","01-709-1099",5,"WEEK 4",28,"2013-11-27","2013-11-27"
"1873","CDISCPILOT01","SV","01-709-1099",6,"AMBUL ECG REMOVAL",30,"2013-11-29","2013-11-29"
"1874","CDISCPILOT01","SV","01-709-1099",7,"WEEK 6",42,"2013-12-11","2013-12-11"
"1875","CDISCPILOT01","SV","01-709-1099",8,"WEEK 8",56,"2013-12-26","2013-12-26"
"1876","CDISCPILOT01","SV","01-709-1099",8.1,"WEEK 10 (T)",70,"2014-01-08","2014-01-08"
"1877","CDISCPILOT01","SV","01-709-1099",9,"WEEK 12",84,"2014-01-20","2014-01-20"
"1878","CDISCPILOT01","SV","01-709-1099",9.1,"WEEK 14 (T)",98,"2014-02-03","2014-02-03"
"1879","CDISCPILOT01","SV","01-709-1099",10,"WEEK 16",112,"2014-02-14","2014-02-14"
"1880","CDISCPILOT01","SV","01-709-1099",10.1,"WEEK 18 (T)",126,"2014-02-24","2014-02-24"
"1881","CDISCPILOT01","SV","01-709-1099",11,"WEEK 20",140,"2014-03-14","2014-03-14"
"1882","CDISCPILOT01","SV","01-709-1099",11.1,"WEEK 22 (T)",154,"2014-03-25","2014-03-25"
"1883","CDISCPILOT01","SV","01-709-1099",12,"WEEK 24",168,"2014-04-11","2014-04-11"
"1884","CDISCPILOT01","SV","01-709-1099",13,"WEEK 26",182,"2014-04-25","2014-04-25"
"1885","CDISCPILOT01","SV","01-709-1102",1,"SCREENING 1",-7,"2013-01-07","2013-01-07"
"1886","CDISCPILOT01","SV","01-709-1102",1.1,"UNSCHEDULED 1.1",NA,"2013-01-13","2013-01-13"
"1887","CDISCPILOT01","SV","01-709-1102",2,"SCREENING 2",-1,"2013-01-13","2013-01-13"
"1888","CDISCPILOT01","SV","01-709-1102",3,"BASELINE",1,"2013-01-15","2013-01-15"
"1889","CDISCPILOT01","SV","01-709-1102",3.5,"AMBUL ECG PLACEMENT",13,"2013-01-30","2013-01-30"
"1890","CDISCPILOT01","SV","01-709-1102",4,"WEEK 2",14,"2013-01-31","2013-01-31"
"1891","CDISCPILOT01","SV","01-709-1102",5,"WEEK 4",28,"2013-02-11","2013-02-11"
"1892","CDISCPILOT01","SV","01-709-1102",6,"AMBUL ECG REMOVAL",30,"2013-02-13","2013-02-13"
"1893","CDISCPILOT01","SV","01-709-1102",7,"WEEK 6",42,"2013-02-27","2013-02-27"
"1894","CDISCPILOT01","SV","01-709-1102",8,"WEEK 8",56,"2013-03-12","2013-03-12"
"1895","CDISCPILOT01","SV","01-709-1102",9,"WEEK 12",84,"2013-03-31","2013-03-31"
"1896","CDISCPILOT01","SV","01-709-1102",101,"AE FOLLOW-UP",NA,"2013-05-12","2013-05-12"
"1897","CDISCPILOT01","SV","01-709-1168",1,"SCREENING 1",-7,"2013-07-25","2013-07-25"
"1898","CDISCPILOT01","SV","01-709-1168",2,"SCREENING 2",-1,"2013-07-31","2013-07-31"
"1899","CDISCPILOT01","SV","01-709-1168",3,"BASELINE",1,"2013-08-02","2013-08-02"
"1900","CDISCPILOT01","SV","01-709-1168",3.5,"AMBUL ECG PLACEMENT",13,"2013-08-16","2013-08-16"
"1901","CDISCPILOT01","SV","01-709-1168",4,"WEEK 2",14,"2013-08-17","2013-08-17"
"1902","CDISCPILOT01","SV","01-709-1168",5,"WEEK 4",28,"2013-08-30","2013-08-30"
"1903","CDISCPILOT01","SV","01-709-1168",7,"WEEK 6",42,"2013-09-13","2013-09-13"
"1904","CDISCPILOT01","SV","01-709-1168",8,"WEEK 8",56,"2013-09-27","2013-09-27"
"1905","CDISCPILOT01","SV","01-709-1168",101,"AE FOLLOW-UP",NA,"2013-11-01","2013-11-01"
"1906","CDISCPILOT01","SV","01-709-1217",1,"SCREENING 1",-7,"2013-02-16","2013-02-16"
"1907","CDISCPILOT01","SV","01-709-1217",2,"SCREENING 2",-1,"2013-03-02","2013-03-02"
"1908","CDISCPILOT01","SV","01-709-1217",3,"BASELINE",1,"2013-03-04","2013-03-04"
"1909","CDISCPILOT01","SV","01-709-1217",3.5,"AMBUL ECG PLACEMENT",13,"2013-03-18","2013-03-18"
"1910","CDISCPILOT01","SV","01-709-1217",4,"WEEK 2",14,"2013-03-19","2013-03-19"
"1911","CDISCPILOT01","SV","01-709-1217",5,"WEEK 4",28,"2013-03-30","2013-03-30"
"1912","CDISCPILOT01","SV","01-709-1217",6,"AMBUL ECG REMOVAL",30,"2013-04-01","2013-04-01"
"1913","CDISCPILOT01","SV","01-709-1217",7,"WEEK 6",42,"2013-04-13","2013-04-13"
"1914","CDISCPILOT01","SV","01-709-1217",8,"WEEK 8",56,"2013-04-29","2013-04-29"
"1915","CDISCPILOT01","SV","01-709-1217",8.1,"WEEK 10 (T)",70,"2013-05-13","2013-05-13"
"1916","CDISCPILOT01","SV","01-709-1217",9,"WEEK 12",84,"2013-05-25","2013-05-25"
"1917","CDISCPILOT01","SV","01-709-1217",9.1,"WEEK 14 (T)",98,"2013-06-11","2013-06-11"
"1918","CDISCPILOT01","SV","01-709-1217",10,"WEEK 16",112,"2013-06-25","2013-06-25"
"1919","CDISCPILOT01","SV","01-709-1224",1,"SCREENING 1",-7,"2013-11-18","2013-11-18"
"1920","CDISCPILOT01","SV","01-709-1237",1,"SCREENING 1",-7,"2014-01-17","2014-01-17"
"1921","CDISCPILOT01","SV","01-709-1238",1,"SCREENING 1",-7,"2013-05-02","2013-05-02"
"1922","CDISCPILOT01","SV","01-709-1238",2,"SCREENING 2",-1,"2013-05-13","2013-05-13"
"1923","CDISCPILOT01","SV","01-709-1238",3,"BASELINE",1,"2013-05-15","2013-05-15"
"1924","CDISCPILOT01","SV","01-709-1238",3.5,"AMBUL ECG PLACEMENT",13,"2013-05-28","2013-05-28"
"1925","CDISCPILOT01","SV","01-709-1238",4,"WEEK 2",14,"2013-05-29","2013-05-29"
"1926","CDISCPILOT01","SV","01-709-1238",5,"WEEK 4",28,"2013-06-19","2013-06-19"
"1927","CDISCPILOT01","SV","01-709-1238",6,"AMBUL ECG REMOVAL",30,"2013-06-25","2013-06-25"
"1928","CDISCPILOT01","SV","01-709-1238",7,"WEEK 6",42,"2013-06-26","2013-06-26"
"1929","CDISCPILOT01","SV","01-709-1238",8,"WEEK 8",56,"2013-07-02","2013-07-02"
"1930","CDISCPILOT01","SV","01-709-1238",8.1,"WEEK 10 (T)",70,"2013-07-24","2013-07-24"
"1931","CDISCPILOT01","SV","01-709-1238",9,"WEEK 12",84,"2013-08-07","2013-08-07"
"1932","CDISCPILOT01","SV","01-709-1238",101,"AE FOLLOW-UP",NA,"2013-08-13","2013-08-13"
"1933","CDISCPILOT01","SV","01-709-1259",1,"SCREENING 1",-7,"2013-01-13","2013-01-13"
"1934","CDISCPILOT01","SV","01-709-1259",2,"SCREENING 2",-1,"2013-01-24","2013-01-24"
"1935","CDISCPILOT01","SV","01-709-1259",3,"BASELINE",1,"2013-01-26","2013-01-26"
"1936","CDISCPILOT01","SV","01-709-1259",3.5,"AMBUL ECG PLACEMENT",13,"2013-02-09","2013-02-09"
"1937","CDISCPILOT01","SV","01-709-1259",4,"WEEK 2",14,"2013-02-10","2013-02-10"
"1938","CDISCPILOT01","SV","01-709-1259",5,"WEEK 4",28,"2013-02-22","2013-02-22"
"1939","CDISCPILOT01","SV","01-709-1259",6,"AMBUL ECG REMOVAL",30,"2013-02-24","2013-02-24"
"1940","CDISCPILOT01","SV","01-709-1259",7,"WEEK 6",42,"2013-03-08","2013-03-08"
"1941","CDISCPILOT01","SV","01-709-1259",8,"WEEK 8",56,"2013-03-23","2013-03-23"
"1942","CDISCPILOT01","SV","01-709-1259",8.1,"WEEK 10 (T)",70,"2013-04-05","2013-04-05"
"1943","CDISCPILOT01","SV","01-709-1259",9,"WEEK 12",84,"2013-04-20","2013-04-20"
"1944","CDISCPILOT01","SV","01-709-1259",9.1,"WEEK 14 (T)",98,"2013-05-03","2013-05-03"
"1945","CDISCPILOT01","SV","01-709-1259",10,"WEEK 16",112,"2013-05-11","2013-05-11"
"1946","CDISCPILOT01","SV","01-709-1259",10.1,"WEEK 18 (T)",126,"2013-05-25","2013-05-25"
"1947","CDISCPILOT01","SV","01-709-1259",11,"WEEK 20",140,"2013-06-13","2013-06-13"
"1948","CDISCPILOT01","SV","01-709-1285",1,"SCREENING 1",-7,"2013-03-17","2013-03-17"
"1949","CDISCPILOT01","SV","01-709-1285",2,"SCREENING 2",-1,"2013-03-22","2013-03-22"
"1950","CDISCPILOT01","SV","01-709-1285",3,"BASELINE",1,"2013-03-24","2013-03-24"
"1951","CDISCPILOT01","SV","01-709-1285",3.5,"AMBUL ECG PLACEMENT",13,"2013-04-07","2013-04-07"
"1952","CDISCPILOT01","SV","01-709-1285",4,"WEEK 2",14,"2013-04-08","2013-04-08"
"1953","CDISCPILOT01","SV","01-709-1285",5,"WEEK 4",28,"2013-04-19","2013-04-19"
"1954","CDISCPILOT01","SV","01-709-1285",6,"AMBUL ECG REMOVAL",30,"2013-04-21","2013-04-21"
"1955","CDISCPILOT01","SV","01-709-1285",7,"WEEK 6",42,"2013-05-03","2013-05-03"
"1956","CDISCPILOT01","SV","01-709-1285",8,"WEEK 8",56,"2013-05-19","2013-05-19"
"1957","CDISCPILOT01","SV","01-709-1285",9,"WEEK 12",84,"2013-05-31","2013-05-31"
"1958","CDISCPILOT01","SV","01-709-1301",1,"SCREENING 1",-7,"2013-07-14","2013-07-14"
"1959","CDISCPILOT01","SV","01-709-1301",1.1,"UNSCHEDULED 1.1",NA,"2013-07-14","2013-07-14"
"1960","CDISCPILOT01","SV","01-709-1301",2,"SCREENING 2",-1,"2013-07-17","2013-07-17"
"1961","CDISCPILOT01","SV","01-709-1301",3,"BASELINE",1,"2013-07-19","2013-07-19"
"1962","CDISCPILOT01","SV","01-709-1301",3.5,"AMBUL ECG PLACEMENT",13,"2013-08-01","2013-08-01"
"1963","CDISCPILOT01","SV","01-709-1301",4,"WEEK 2",14,"2013-08-02","2013-08-02"
"1964","CDISCPILOT01","SV","01-709-1301",5,"WEEK 4",28,"2013-08-11","2013-08-11"
"1965","CDISCPILOT01","SV","01-709-1301",6,"AMBUL ECG REMOVAL",30,"2013-08-13","2013-08-13"
"1966","CDISCPILOT01","SV","01-709-1301",7,"WEEK 6",42,"2013-08-30","2013-08-30"
"1967","CDISCPILOT01","SV","01-709-1301",8,"WEEK 8",56,"2013-09-13","2013-09-13"
"1968","CDISCPILOT01","SV","01-709-1301",8.1,"WEEK 10 (T)",70,"2013-09-29","2013-09-29"
"1969","CDISCPILOT01","SV","01-709-1301",9,"WEEK 12",84,"2013-10-13","2013-10-13"
"1970","CDISCPILOT01","SV","01-709-1301",9.1,"WEEK 14 (T)",98,"2013-10-25","2013-10-25"
"1971","CDISCPILOT01","SV","01-709-1301",10,"WEEK 16",112,"2013-11-08","2013-11-08"
"1972","CDISCPILOT01","SV","01-709-1301",10.1,"WEEK 18 (T)",126,"2013-11-22","2013-11-22"
"1973","CDISCPILOT01","SV","01-709-1301",11,"WEEK 20",140,"2013-12-06","2013-12-06"
"1974","CDISCPILOT01","SV","01-709-1301",11.1,"WEEK 22 (T)",154,"2013-12-20","2013-12-20"
"1975","CDISCPILOT01","SV","01-709-1301",12,"WEEK 24",168,"2014-01-04","2014-01-04"
"1976","CDISCPILOT01","SV","01-709-1301",13,"WEEK 26",182,"2014-01-17","2014-01-17"
"1977","CDISCPILOT01","SV","01-709-1306",1,"SCREENING 1",-7,"2014-01-19","2014-01-19"
"1978","CDISCPILOT01","SV","01-709-1306",2,"SCREENING 2",-1,"2014-02-01","2014-02-01"
"1979","CDISCPILOT01","SV","01-709-1306",3,"BASELINE",1,"2014-02-03","2014-02-03"
"1980","CDISCPILOT01","SV","01-709-1306",3.5,"AMBUL ECG PLACEMENT",13,"2014-02-18","2014-02-18"
"1981","CDISCPILOT01","SV","01-709-1306",4,"WEEK 2",14,"2014-02-19","2014-02-19"
"1982","CDISCPILOT01","SV","01-709-1306",5,"WEEK 4",28,"2014-03-02","2014-03-02"
"1983","CDISCPILOT01","SV","01-709-1306",6,"AMBUL ECG REMOVAL",30,"2014-03-04","2014-03-04"
"1984","CDISCPILOT01","SV","01-709-1306",7,"WEEK 6",42,"2014-03-19","2014-03-19"
"1985","CDISCPILOT01","SV","01-709-1306",8,"WEEK 8",56,"2014-04-02","2014-04-02"
"1986","CDISCPILOT01","SV","01-709-1306",8.1,"WEEK 10 (T)",70,"2014-04-13","2014-04-13"
"1987","CDISCPILOT01","SV","01-709-1306",9,"WEEK 12",84,"2014-04-30","2014-04-30"
"1988","CDISCPILOT01","SV","01-709-1306",9.1,"WEEK 14 (T)",98,"2014-05-14","2014-05-14"
"1989","CDISCPILOT01","SV","01-709-1306",10,"WEEK 16",112,"2014-05-28","2014-05-28"
"1990","CDISCPILOT01","SV","01-709-1306",10.1,"WEEK 18 (T)",126,"2014-06-09","2014-06-09"
"1991","CDISCPILOT01","SV","01-709-1306",11,"WEEK 20",140,"2014-06-25","2014-06-25"
"1992","CDISCPILOT01","SV","01-709-1309",1,"SCREENING 1",-7,"2013-06-09","2013-06-09"
"1993","CDISCPILOT01","SV","01-709-1309",1.1,"UNSCHEDULED 1.1",NA,"2013-06-09","2013-06-09"
"1994","CDISCPILOT01","SV","01-709-1309",2,"SCREENING 2",-1,"2013-06-17","2013-06-17"
"1995","CDISCPILOT01","SV","01-709-1309",3,"BASELINE",1,"2013-06-19","2013-06-19"
"1996","CDISCPILOT01","SV","01-709-1309",3.5,"AMBUL ECG PLACEMENT",13,"2013-06-30","2013-06-30"
"1997","CDISCPILOT01","SV","01-709-1309",4,"WEEK 2",14,"2013-07-01","2013-07-01"
"1998","CDISCPILOT01","SV","01-709-1309",5,"WEEK 4",28,"2013-07-16","2013-07-16"
"1999","CDISCPILOT01","SV","01-709-1309",6,"AMBUL ECG REMOVAL",30,"2013-07-18","2013-07-18"
"2000","CDISCPILOT01","SV","01-709-1309",7,"WEEK 6",42,"2013-07-31","2013-07-31"
"2001","CDISCPILOT01","SV","01-709-1309",8,"WEEK 8",56,"2013-08-15","2013-08-15"
"2002","CDISCPILOT01","SV","01-709-1309",8.1,"WEEK 10 (T)",70,"2013-08-29","2013-08-29"
"2003","CDISCPILOT01","SV","01-709-1309",9,"WEEK 12",84,"2013-09-11","2013-09-11"
"2004","CDISCPILOT01","SV","01-709-1309",9.1,"WEEK 14 (T)",98,"2013-09-23","2013-09-23"
"2005","CDISCPILOT01","SV","01-709-1309",10,"WEEK 16",112,"2013-10-16","2013-10-16"
"2006","CDISCPILOT01","SV","01-709-1309",10.1,"WEEK 18 (T)",126,"2013-10-28","2013-10-28"
"2007","CDISCPILOT01","SV","01-709-1309",11,"WEEK 20",140,"2013-11-07","2013-11-07"
"2008","CDISCPILOT01","SV","01-709-1309",11.1,"WEEK 22 (T)",154,"2013-11-25","2013-11-25"
"2009","CDISCPILOT01","SV","01-709-1309",12,"WEEK 24",168,"2013-12-05","2013-12-05"
"2010","CDISCPILOT01","SV","01-709-1309",13,"WEEK 26",182,"2013-12-19","2013-12-19"
"2011","CDISCPILOT01","SV","01-709-1312",1,"SCREENING 1",-7,"2014-04-13","2014-04-13"
"2012","CDISCPILOT01","SV","01-709-1312",1.1,"UNSCHEDULED 1.1",NA,"2014-04-18","2014-04-18"
"2013","CDISCPILOT01","SV","01-709-1312",2,"SCREENING 2",-1,"2014-04-18","2014-04-18"
"2014","CDISCPILOT01","SV","01-709-1312",3,"BASELINE",1,"2014-04-20","2014-04-20"
"2015","CDISCPILOT01","SV","01-709-1312",4,"WEEK 2",14,"2014-05-10","2014-05-10"
"2016","CDISCPILOT01","SV","01-709-1312",5,"WEEK 4",28,"2014-05-17","2014-05-17"
"2017","CDISCPILOT01","SV","01-709-1312",6,"AMBUL ECG REMOVAL",30,"2014-05-19","2014-05-19"
"2018","CDISCPILOT01","SV","01-709-1312",7,"WEEK 6",42,"2014-06-02","2014-06-02"
"2019","CDISCPILOT01","SV","01-709-1312",8,"WEEK 8",56,"2014-06-13","2014-06-13"
"2020","CDISCPILOT01","SV","01-709-1312",8.1,"WEEK 10 (T)",70,"2014-07-03","2014-07-03"
"2021","CDISCPILOT01","SV","01-709-1312",9,"WEEK 12",84,"2014-07-13","2014-07-13"
"2022","CDISCPILOT01","SV","01-709-1312",9.1,"WEEK 14 (T)",98,"2014-07-25","2014-07-25"
"2023","CDISCPILOT01","SV","01-709-1312",10,"WEEK 16",112,"2014-08-10","2014-08-10"
"2024","CDISCPILOT01","SV","01-709-1312",10.1,"WEEK 18 (T)",126,"2014-08-28","2014-08-28"
"2025","CDISCPILOT01","SV","01-709-1312",11,"WEEK 20",140,"2014-09-07","2014-09-07"
"2026","CDISCPILOT01","SV","01-709-1312",11.1,"WEEK 22 (T)",154,"2014-09-14","2014-09-14"
"2027","CDISCPILOT01","SV","01-709-1312",12,"WEEK 24",168,"2014-10-05","2014-10-05"
"2028","CDISCPILOT01","SV","01-709-1312",13,"WEEK 26",182,"2014-10-19","2014-10-19"
"2029","CDISCPILOT01","SV","01-709-1326",1,"SCREENING 1",-7,"2013-03-21","2013-03-21"
"2030","CDISCPILOT01","SV","01-709-1326",2,"SCREENING 2",-1,"2013-04-03","2013-04-03"
"2031","CDISCPILOT01","SV","01-709-1326",3,"BASELINE",1,"2013-04-05","2013-04-05"
"2032","CDISCPILOT01","SV","01-709-1326",3.5,"AMBUL ECG PLACEMENT",13,"2013-04-17","2013-04-17"
"2033","CDISCPILOT01","SV","01-709-1326",4,"WEEK 2",14,"2013-04-18","2013-04-18"
"2034","CDISCPILOT01","SV","01-709-1326",5,"WEEK 4",28,"2013-05-01","2013-05-01"
"2035","CDISCPILOT01","SV","01-709-1326",6,"AMBUL ECG REMOVAL",30,"2013-05-03","2013-05-03"
"2036","CDISCPILOT01","SV","01-709-1326",7,"WEEK 6",42,"2013-05-18","2013-05-18"
"2037","CDISCPILOT01","SV","01-709-1326",8,"WEEK 8",56,"2013-06-01","2013-06-01"
"2038","CDISCPILOT01","SV","01-709-1326",8.1,"WEEK 10 (T)",70,"2013-06-12","2013-06-12"
"2039","CDISCPILOT01","SV","01-709-1326",9,"WEEK 12",84,"2013-06-26","2013-06-26"
"2040","CDISCPILOT01","SV","01-709-1326",9.1,"WEEK 14 (T)",98,"2013-07-11","2013-07-11"
"2041","CDISCPILOT01","SV","01-709-1326",10,"WEEK 16",112,"2013-07-26","2013-07-26"
"2042","CDISCPILOT01","SV","01-709-1326",10.1,"WEEK 18 (T)",126,"2013-08-07","2013-08-07"
"2043","CDISCPILOT01","SV","01-709-1326",11,"WEEK 20",140,"2013-08-21","2013-08-21"
"2044","CDISCPILOT01","SV","01-709-1326",11.1,"WEEK 22 (T)",154,"2013-09-05","2013-09-05"
"2045","CDISCPILOT01","SV","01-709-1326",12,"WEEK 24",168,"2013-09-20","2013-09-20"
"2046","CDISCPILOT01","SV","01-709-1326",13,"WEEK 26",182,"2013-10-02","2013-10-02"
"2047","CDISCPILOT01","SV","01-709-1329",1,"SCREENING 1",-7,"2013-08-01","2013-08-01"
"2048","CDISCPILOT01","SV","01-709-1329",1.1,"UNSCHEDULED 1.1",NA,"2013-08-13","2013-08-13"
"2049","CDISCPILOT01","SV","01-709-1329",2,"SCREENING 2",-1,"2013-08-13","2013-08-13"
"2050","CDISCPILOT01","SV","01-709-1329",3,"BASELINE",1,"2013-08-15","2013-08-15"
"2051","CDISCPILOT01","SV","01-709-1329",4,"WEEK 2",14,"2013-08-29","2013-08-29"
"2052","CDISCPILOT01","SV","01-709-1339",1,"SCREENING 1",-7,"2012-12-15","2012-12-15"
"2053","CDISCPILOT01","SV","01-709-1339",2,"SCREENING 2",-1,"2012-12-21","2012-12-21"
"2054","CDISCPILOT01","SV","01-709-1339",3,"BASELINE",1,"2012-12-23","2012-12-23"
"2055","CDISCPILOT01","SV","01-709-1339",3.5,"AMBUL ECG PLACEMENT",13,"2013-01-04","2013-01-04"
"2056","CDISCPILOT01","SV","01-709-1339",4,"WEEK 2",14,"2013-01-05","2013-01-05"
"2057","CDISCPILOT01","SV","01-709-1339",5,"WEEK 4",28,"2013-01-20","2013-01-20"
"2058","CDISCPILOT01","SV","01-709-1339",6,"AMBUL ECG REMOVAL",30,"2013-01-22","2013-01-22"
"2059","CDISCPILOT01","SV","01-709-1339",7,"WEEK 6",42,"2013-02-03","2013-02-03"
"2060","CDISCPILOT01","SV","01-709-1339",8,"WEEK 8",56,"2013-02-19","2013-02-19"
"2061","CDISCPILOT01","SV","01-709-1339",8.1,"WEEK 10 (T)",70,"2013-03-09","2013-03-09"
"2062","CDISCPILOT01","SV","01-709-1339",9,"WEEK 12",84,"2013-03-17","2013-03-17"
"2063","CDISCPILOT01","SV","01-709-1339",9.1,"WEEK 14 (T)",98,"2013-03-31","2013-03-31"
"2064","CDISCPILOT01","SV","01-709-1339",10,"WEEK 16",112,"2013-04-14","2013-04-14"
"2065","CDISCPILOT01","SV","01-709-1339",10.1,"WEEK 18 (T)",126,"2013-04-28","2013-04-28"
"2066","CDISCPILOT01","SV","01-709-1339",11,"WEEK 20",140,"2013-05-12","2013-05-12"
"2067","CDISCPILOT01","SV","01-709-1339",11.1,"WEEK 22 (T)",154,"2013-05-25","2013-05-25"
"2068","CDISCPILOT01","SV","01-709-1339",12,"WEEK 24",168,"2013-06-08","2013-06-08"
"2069","CDISCPILOT01","SV","01-709-1339",13,"WEEK 26",182,"2013-06-24","2013-06-24"
"2070","CDISCPILOT01","SV","01-709-1424",1,"SCREENING 1",-7,"2013-02-15","2013-02-15"
"2071","CDISCPILOT01","SV","01-709-1424",2,"SCREENING 2",-1,"2013-03-01","2013-03-01"
"2072","CDISCPILOT01","SV","01-709-1424",3,"BASELINE",1,"2013-03-03","2013-03-03"
"2073","CDISCPILOT01","SV","01-709-1424",4,"WEEK 2",14,"2013-03-08","2013-03-08"
"2074","CDISCPILOT01","SV","01-709-1424",4.1,"UNSCHEDULED 4.1",NA,"2013-03-17","2013-03-17"
"2075","CDISCPILOT01","SV","01-709-1424",101,"AE FOLLOW-UP",NA,"2013-03-17","2013-03-17"
"2076","CDISCPILOT01","SV","01-710-1002",1,"SCREENING 1",-7,"2013-12-30","2013-12-30"
"2077","CDISCPILOT01","SV","01-710-1002",1.1,"UNSCHEDULED 1.1",NA,"2013-12-31","2013-12-31"
"2078","CDISCPILOT01","SV","01-710-1002",2,"SCREENING 2",-1,"2014-01-12","2014-01-12"
"2079","CDISCPILOT01","SV","01-710-1002",3,"BASELINE",1,"2014-01-14","2014-01-14"
"2080","CDISCPILOT01","SV","01-710-1002",4,"WEEK 2",14,"2014-01-18","2014-01-18"
"2081","CDISCPILOT01","SV","01-710-1002",101,"AE FOLLOW-UP",NA,"2014-01-20","2014-01-20"
"2082","CDISCPILOT01","SV","01-710-1006",1,"SCREENING 1",-7,"2013-01-27","2013-01-27"
"2083","CDISCPILOT01","SV","01-710-1006",2,"SCREENING 2",-1,"2013-02-08","2013-02-08"
"2084","CDISCPILOT01","SV","01-710-1006",3,"BASELINE",1,"2013-02-10","2013-02-10"
"2085","CDISCPILOT01","SV","01-710-1006",3.5,"AMBUL ECG PLACEMENT",13,"2013-02-21","2013-02-21"
"2086","CDISCPILOT01","SV","01-710-1006",4,"WEEK 2",14,"2013-02-22","2013-02-22"
"2087","CDISCPILOT01","SV","01-710-1006",5,"WEEK 4",28,"2013-03-08","2013-03-08"
"2088","CDISCPILOT01","SV","01-710-1006",6,"AMBUL ECG REMOVAL",30,"2013-03-10","2013-03-10"
"2089","CDISCPILOT01","SV","01-710-1006",7,"WEEK 6",42,"2013-03-23","2013-03-23"
"2090","CDISCPILOT01","SV","01-710-1006",8,"WEEK 8",56,"2013-04-06","2013-04-06"
"2091","CDISCPILOT01","SV","01-710-1006",8.1,"WEEK 10 (T)",70,"2013-04-20","2013-04-20"
"2092","CDISCPILOT01","SV","01-710-1006",9,"WEEK 12",84,"2013-05-04","2013-05-04"
"2093","CDISCPILOT01","SV","01-710-1006",9.1,"WEEK 14 (T)",98,"2013-05-18","2013-05-18"
"2094","CDISCPILOT01","SV","01-710-1006",9.2,"UNSCHEDULED 9.2",NA,"2013-05-18","2013-05-18"
"2095","CDISCPILOT01","SV","01-710-1006",10,"WEEK 16",112,"2013-06-01","2013-06-01"
"2096","CDISCPILOT01","SV","01-710-1006",10.1,"WEEK 18 (T)",126,"2013-06-15","2013-06-15"
"2097","CDISCPILOT01","SV","01-710-1006",11,"WEEK 20",140,"2013-06-29","2013-06-29"
"2098","CDISCPILOT01","SV","01-710-1006",11.1,"WEEK 22 (T)",154,"2013-07-13","2013-07-13"
"2099","CDISCPILOT01","SV","01-710-1006",11.2,"UNSCHEDULED 11.2",NA,"2013-07-13","2013-07-13"
"2100","CDISCPILOT01","SV","01-710-1006",12,"WEEK 24",168,"2013-07-27","2013-07-27"
"2101","CDISCPILOT01","SV","01-710-1006",13,"WEEK 26",182,"2013-08-10","2013-08-10"
"2102","CDISCPILOT01","SV","01-710-1021",1,"SCREENING 1",-7,"2013-09-19","2013-09-19"
"2103","CDISCPILOT01","SV","01-710-1021",2,"SCREENING 2",-1,"2013-09-25","2013-09-25"
"2104","CDISCPILOT01","SV","01-710-1021",3,"BASELINE",1,"2013-09-27","2013-09-27"
"2105","CDISCPILOT01","SV","01-710-1021",3.5,"AMBUL ECG PLACEMENT",13,"2013-10-10","2013-10-10"
"2106","CDISCPILOT01","SV","01-710-1021",4,"WEEK 2",14,"2013-10-11","2013-10-11"
"2107","CDISCPILOT01","SV","01-710-1021",5,"WEEK 4",28,"2013-10-27","2013-10-27"
"2108","CDISCPILOT01","SV","01-710-1021",6,"AMBUL ECG REMOVAL",30,"2013-10-29","2013-10-29"
"2109","CDISCPILOT01","SV","01-710-1021",7,"WEEK 6",42,"2013-11-12","2013-11-12"
"2110","CDISCPILOT01","SV","01-710-1021",101,"AE FOLLOW-UP",NA,"2013-11-22","2013-11-22"
"2111","CDISCPILOT01","SV","01-710-1027",1,"SCREENING 1",-7,"2014-02-03","2014-02-03"
"2112","CDISCPILOT01","SV","01-710-1027",2,"SCREENING 2",-1,"2014-02-27","2014-02-27"
"2113","CDISCPILOT01","SV","01-710-1027",3,"BASELINE",1,"2014-02-28","2014-02-28"
"2114","CDISCPILOT01","SV","01-710-1027",4,"WEEK 2",14,"2014-03-14","2014-03-14"
"2115","CDISCPILOT01","SV","01-710-1027",5,"WEEK 4",28,"2014-03-28","2014-03-28"
"2116","CDISCPILOT01","SV","01-710-1027",7,"WEEK 6",42,"2014-04-11","2014-04-11"
"2117","CDISCPILOT01","SV","01-710-1027",8,"WEEK 8",56,"2014-04-24","2014-04-24"
"2118","CDISCPILOT01","SV","01-710-1027",8.1,"WEEK 10 (T)",70,"2014-05-08","2014-05-08"
"2119","CDISCPILOT01","SV","01-710-1027",9,"WEEK 12",84,"2014-05-23","2014-05-23"
"2120","CDISCPILOT01","SV","01-710-1027",9.1,"WEEK 14 (T)",98,"2014-06-06","2014-06-06"
"2121","CDISCPILOT01","SV","01-710-1027",10,"WEEK 16",112,"2014-06-20","2014-06-20"
"2122","CDISCPILOT01","SV","01-710-1027",10.1,"WEEK 18 (T)",126,"2014-07-04","2014-07-04"
"2123","CDISCPILOT01","SV","01-710-1027",11,"WEEK 20",140,"2014-07-17","2014-07-17"
"2124","CDISCPILOT01","SV","01-710-1027",11.1,"WEEK 22 (T)",154,"2014-07-31","2014-07-31"
"2125","CDISCPILOT01","SV","01-710-1027",12,"WEEK 24",168,"2014-08-19","2014-08-19"
"2126","CDISCPILOT01","SV","01-710-1027",13,"WEEK 26",182,"2014-08-29","2014-08-29"
"2127","CDISCPILOT01","SV","01-710-1045",1,"SCREENING 1",-7,"2013-05-20","2013-05-20"
"2128","CDISCPILOT01","SV","01-710-1045",2,"SCREENING 2",-1,"2013-06-01","2013-06-01"
"2129","CDISCPILOT01","SV","01-710-1045",3,"BASELINE",1,"2013-06-03","2013-06-03"
"2130","CDISCPILOT01","SV","01-710-1045",3.5,"AMBUL ECG PLACEMENT",13,"2013-06-16","2013-06-16"
"2131","CDISCPILOT01","SV","01-710-1045",4,"WEEK 2",14,"2013-06-17","2013-06-17"
"2132","CDISCPILOT01","SV","01-710-1045",5,"WEEK 4",28,"2013-07-01","2013-07-01"
"2133","CDISCPILOT01","SV","01-710-1045",6,"AMBUL ECG REMOVAL",30,"2013-07-05","2013-07-05"
"2134","CDISCPILOT01","SV","01-710-1045",7,"WEEK 6",42,"2013-07-15","2013-07-15"
"2135","CDISCPILOT01","SV","01-710-1045",8,"WEEK 8",56,"2013-07-29","2013-07-29"
"2136","CDISCPILOT01","SV","01-710-1045",8.1,"WEEK 10 (T)",70,"2013-08-12","2013-08-12"
"2137","CDISCPILOT01","SV","01-710-1045",9,"WEEK 12",84,"2013-08-17","2013-08-17"
"2138","CDISCPILOT01","SV","01-710-1045",101,"AE FOLLOW-UP",NA,"2013-09-08","2013-09-08"
"2139","CDISCPILOT01","SV","01-710-1053",1,"SCREENING 1",-7,"2012-12-15","2012-12-15"
"2140","CDISCPILOT01","SV","01-710-1053",2,"SCREENING 2",-1,"2012-12-24","2012-12-24"
"2141","CDISCPILOT01","SV","01-710-1053",3,"BASELINE",1,"2012-12-26","2012-12-26"
"2142","CDISCPILOT01","SV","01-710-1053",3.5,"AMBUL ECG PLACEMENT",13,"2013-01-08","2013-01-08"
"2143","CDISCPILOT01","SV","01-710-1053",4,"WEEK 2",14,"2013-01-09","2013-01-09"
"2144","CDISCPILOT01","SV","01-710-1053",5,"WEEK 4",28,"2013-01-24","2013-01-24"
"2145","CDISCPILOT01","SV","01-710-1053",6,"AMBUL ECG REMOVAL",30,"2013-01-26","2013-01-26"
"2146","CDISCPILOT01","SV","01-710-1053",7,"WEEK 6",42,"2013-02-06","2013-02-06"
"2147","CDISCPILOT01","SV","01-710-1053",8,"WEEK 8",56,"2013-02-15","2013-02-15"
"2148","CDISCPILOT01","SV","01-710-1053",8.2,"UNSCHEDULED 8.2",NA,"2013-02-26","2013-02-26"
"2149","CDISCPILOT01","SV","01-710-1053",101,"AE FOLLOW-UP",NA,"2013-02-26","2013-02-26"
"2150","CDISCPILOT01","SV","01-710-1060",1,"SCREENING 1",-7,"2012-12-24","2012-12-24"
"2151","CDISCPILOT01","SV","01-710-1060",2,"SCREENING 2",-1,"2012-12-30","2012-12-30"
"2152","CDISCPILOT01","SV","01-710-1060",3,"BASELINE",1,"2013-01-01","2013-01-01"
"2153","CDISCPILOT01","SV","01-710-1060",3.5,"AMBUL ECG PLACEMENT",13,"2013-01-14","2013-01-14"
"2154","CDISCPILOT01","SV","01-710-1060",4,"WEEK 2",14,"2013-01-15","2013-01-15"
"2155","CDISCPILOT01","SV","01-710-1060",5,"WEEK 4",28,"2013-02-01","2013-02-01"
"2156","CDISCPILOT01","SV","01-710-1060",6,"AMBUL ECG REMOVAL",30,"2013-02-03","2013-02-03"
"2157","CDISCPILOT01","SV","01-710-1060",7,"WEEK 6",42,"2013-02-12","2013-02-12"
"2158","CDISCPILOT01","SV","01-710-1060",8,"WEEK 8",56,"2013-02-26","2013-02-26"
"2159","CDISCPILOT01","SV","01-710-1060",8.1,"WEEK 10 (T)",70,"2013-03-12","2013-03-12"
"2160","CDISCPILOT01","SV","01-710-1060",8.2,"UNSCHEDULED 8.2",NA,"2013-03-12","2013-03-12"
"2161","CDISCPILOT01","SV","01-710-1060",9,"WEEK 12",84,"2013-03-26","2013-03-26"
"2162","CDISCPILOT01","SV","01-710-1060",9.1,"WEEK 14 (T)",98,"2013-04-09","2013-04-09"
"2163","CDISCPILOT01","SV","01-710-1060",10,"WEEK 16",112,"2013-04-23","2013-04-23"
"2164","CDISCPILOT01","SV","01-710-1060",10.1,"WEEK 18 (T)",126,"2013-05-07","2013-05-07"
"2165","CDISCPILOT01","SV","01-710-1060",11,"WEEK 20",140,"2013-05-24","2013-05-24"
"2166","CDISCPILOT01","SV","01-710-1060",11.1,"WEEK 22 (T)",154,"2013-06-07","2013-06-07"
"2167","CDISCPILOT01","SV","01-710-1060",12,"WEEK 24",168,"2013-06-21","2013-06-21"
"2168","CDISCPILOT01","SV","01-710-1060",13,"WEEK 26",182,"2013-07-05","2013-07-05"
"2169","CDISCPILOT01","SV","01-710-1070",1,"SCREENING 1",-7,"2012-08-28","2012-08-28"
"2170","CDISCPILOT01","SV","01-710-1070",2,"SCREENING 2",-1,"2012-09-06","2012-09-06"
"2171","CDISCPILOT01","SV","01-710-1070",3,"BASELINE",1,"2012-09-08","2012-09-08"
"2172","CDISCPILOT01","SV","01-710-1070",3.5,"AMBUL ECG PLACEMENT",13,"2012-09-21","2012-09-21"
"2173","CDISCPILOT01","SV","01-710-1070",4,"WEEK 2",14,"2012-09-22","2012-09-22"
"2174","CDISCPILOT01","SV","01-710-1070",5,"WEEK 4",28,"2012-10-06","2012-10-06"
"2175","CDISCPILOT01","SV","01-710-1070",6,"AMBUL ECG REMOVAL",30,"2012-10-08","2012-10-08"
"2176","CDISCPILOT01","SV","01-710-1070",7,"WEEK 6",42,"2012-10-20","2012-10-20"
"2177","CDISCPILOT01","SV","01-710-1070",8,"WEEK 8",56,"2012-11-05","2012-11-05"
"2178","CDISCPILOT01","SV","01-710-1070",8.1,"WEEK 10 (T)",70,"2012-11-19","2012-11-19"
"2179","CDISCPILOT01","SV","01-710-1070",9,"WEEK 12",84,"2012-12-01","2012-12-01"
"2180","CDISCPILOT01","SV","01-710-1070",9.1,"WEEK 14 (T)",98,"2012-12-15","2012-12-15"
"2181","CDISCPILOT01","SV","01-710-1070",10,"WEEK 16",112,"2012-12-28","2012-12-28"
"2182","CDISCPILOT01","SV","01-710-1070",10.1,"WEEK 18 (T)",126,"2013-01-12","2013-01-12"
"2183","CDISCPILOT01","SV","01-710-1070",11,"WEEK 20",140,"2013-02-23","2013-02-23"
"2184","CDISCPILOT01","SV","01-710-1070",101,"AE FOLLOW-UP",NA,"2013-07-04","2013-07-04"
"2185","CDISCPILOT01","SV","01-710-1077",1,"SCREENING 1",-7,"2013-11-03","2013-11-03"
"2186","CDISCPILOT01","SV","01-710-1077",2,"SCREENING 2",-1,"2013-11-15","2013-11-15"
"2187","CDISCPILOT01","SV","01-710-1077",3,"BASELINE",1,"2013-11-17","2013-11-17"
"2188","CDISCPILOT01","SV","01-710-1077",3.5,"AMBUL ECG PLACEMENT",13,"2013-11-30","2013-11-30"
"2189","CDISCPILOT01","SV","01-710-1077",4,"WEEK 2",14,"2013-12-01","2013-12-01"
"2190","CDISCPILOT01","SV","01-710-1077",5,"WEEK 4",28,"2013-12-15","2013-12-15"
"2191","CDISCPILOT01","SV","01-710-1077",6,"AMBUL ECG REMOVAL",30,"2013-12-17","2013-12-17"
"2192","CDISCPILOT01","SV","01-710-1077",7,"WEEK 6",42,"2013-12-30","2013-12-30"
"2193","CDISCPILOT01","SV","01-710-1077",8,"WEEK 8",56,"2014-01-12","2014-01-12"
"2194","CDISCPILOT01","SV","01-710-1077",8.1,"WEEK 10 (T)",70,"2014-01-26","2014-01-26"
"2195","CDISCPILOT01","SV","01-710-1077",8.2,"UNSCHEDULED 8.2",NA,"2014-01-26","2014-01-26"
"2196","CDISCPILOT01","SV","01-710-1077",9,"WEEK 12",84,"2014-02-09","2014-02-09"
"2197","CDISCPILOT01","SV","01-710-1077",9.1,"WEEK 14 (T)",98,"2014-02-23","2014-02-23"
"2198","CDISCPILOT01","SV","01-710-1077",10,"WEEK 16",112,"2014-03-09","2014-03-09"
"2199","CDISCPILOT01","SV","01-710-1077",10.1,"WEEK 18 (T)",126,"2014-03-23","2014-03-23"
"2200","CDISCPILOT01","SV","01-710-1077",11,"WEEK 20",140,"2014-04-06","2014-04-06"
"2201","CDISCPILOT01","SV","01-710-1077",11.1,"WEEK 22 (T)",154,"2014-04-20","2014-04-20"
"2202","CDISCPILOT01","SV","01-710-1077",12,"WEEK 24",168,"2014-05-03","2014-05-03"
"2203","CDISCPILOT01","SV","01-710-1077",13,"WEEK 26",182,"2014-05-18","2014-05-18"
"2204","CDISCPILOT01","SV","01-710-1078",1,"SCREENING 1",-7,"2013-09-06","2013-09-06"
"2205","CDISCPILOT01","SV","01-710-1078",2,"SCREENING 2",-1,"2013-09-15","2013-09-15"
"2206","CDISCPILOT01","SV","01-710-1078",3,"BASELINE",1,"2013-09-17","2013-09-17"
"2207","CDISCPILOT01","SV","01-710-1078",3.5,"AMBUL ECG PLACEMENT",13,"2013-10-05","2013-10-05"
"2208","CDISCPILOT01","SV","01-710-1078",4,"WEEK 2",14,"2013-10-06","2013-10-06"
"2209","CDISCPILOT01","SV","01-710-1078",5,"WEEK 4",28,"2013-10-20","2013-10-20"
"2210","CDISCPILOT01","SV","01-710-1078",6,"AMBUL ECG REMOVAL",30,"2013-10-22","2013-10-22"
"2211","CDISCPILOT01","SV","01-710-1078",7,"WEEK 6",42,"2013-11-03","2013-11-03"
"2212","CDISCPILOT01","SV","01-710-1078",8,"WEEK 8",56,"2013-11-17","2013-11-17"
"2213","CDISCPILOT01","SV","01-710-1078",8.1,"WEEK 10 (T)",70,"2013-12-01","2013-12-01"
"2214","CDISCPILOT01","SV","01-710-1078",9,"WEEK 12",84,"2013-12-21","2013-12-21"
"2215","CDISCPILOT01","SV","01-710-1078",9.1,"WEEK 14 (T)",98,"2014-01-04","2014-01-04"
"2216","CDISCPILOT01","SV","01-710-1078",10,"WEEK 16",112,"2014-01-12","2014-01-12"
"2217","CDISCPILOT01","SV","01-710-1078",10.1,"WEEK 18 (T)",126,"2014-01-26","2014-01-26"
"2218","CDISCPILOT01","SV","01-710-1078",11,"WEEK 20",140,"2014-02-09","2014-02-09"
"2219","CDISCPILOT01","SV","01-710-1078",11.1,"WEEK 22 (T)",154,"2014-02-23","2014-02-23"
"2220","CDISCPILOT01","SV","01-710-1078",12,"WEEK 24",168,"2014-03-08","2014-03-08"
"2221","CDISCPILOT01","SV","01-710-1078",13,"WEEK 26",182,"2014-03-23","2014-03-23"
"2222","CDISCPILOT01","SV","01-710-1083",1,"SCREENING 1",-7,"2013-07-09","2013-07-09"
"2223","CDISCPILOT01","SV","01-710-1083",2,"SCREENING 2",-1,"2013-07-20","2013-07-20"
"2224","CDISCPILOT01","SV","01-710-1083",3,"BASELINE",1,"2013-07-22","2013-07-22"
"2225","CDISCPILOT01","SV","01-710-1083",4,"WEEK 2",14,"2013-08-03","2013-08-03"
"2226","CDISCPILOT01","SV","01-710-1129",1,"SCREENING 1",-7,"2013-03-05","2013-03-05"
"2227","CDISCPILOT01","SV","01-710-1137",1,"SCREENING 1",-7,"2013-10-03","2013-10-03"
"2228","CDISCPILOT01","SV","01-710-1137",2,"SCREENING 2",-1,"2013-10-09","2013-10-09"
"2229","CDISCPILOT01","SV","01-710-1137",3,"BASELINE",1,"2013-10-11","2013-10-11"
"2230","CDISCPILOT01","SV","01-710-1137",3.5,"AMBUL ECG PLACEMENT",13,"2013-10-24","2013-10-24"
"2231","CDISCPILOT01","SV","01-710-1137",4,"WEEK 2",14,"2013-10-25","2013-10-25"
"2232","CDISCPILOT01","SV","01-710-1137",5,"WEEK 4",28,"2013-11-08","2013-11-08"
"2233","CDISCPILOT01","SV","01-710-1137",6,"AMBUL ECG REMOVAL",30,"2013-11-11","2013-11-11"
"2234","CDISCPILOT01","SV","01-710-1137",7,"WEEK 6",42,"2013-11-13","2013-11-13"
"2235","CDISCPILOT01","SV","01-710-1137",101,"AE FOLLOW-UP",NA,"2013-11-25","2013-11-25"
"2236","CDISCPILOT01","SV","01-710-1142",1,"SCREENING 1",-7,"2012-09-12","2012-09-12"
"2237","CDISCPILOT01","SV","01-710-1142",2,"SCREENING 2",-1,"2012-09-30","2012-09-30"
"2238","CDISCPILOT01","SV","01-710-1142",3,"BASELINE",1,"2012-10-02","2012-10-02"
"2239","CDISCPILOT01","SV","01-710-1142",3.5,"AMBUL ECG PLACEMENT",13,"2012-10-15","2012-10-15"
"2240","CDISCPILOT01","SV","01-710-1142",4,"WEEK 2",14,"2012-10-16","2012-10-16"
"2241","CDISCPILOT01","SV","01-710-1142",5,"WEEK 4",28,"2012-10-23","2012-10-23"
"2242","CDISCPILOT01","SV","01-710-1142",101,"AE FOLLOW-UP",NA,"2012-10-28","2012-10-28"
"2243","CDISCPILOT01","SV","01-710-1149",1,"SCREENING 1",-7,"2013-11-16","2013-11-16"
"2244","CDISCPILOT01","SV","01-710-1154",1,"SCREENING 1",-7,"2014-03-08","2014-03-08"
"2245","CDISCPILOT01","SV","01-710-1154",1.1,"UNSCHEDULED 1.1",NA,"2014-03-15","2014-03-15"
"2246","CDISCPILOT01","SV","01-710-1154",1.2,"UNSCHEDULED 1.2",NA,"2014-03-22","2014-03-22"
"2247","CDISCPILOT01","SV","01-710-1154",2,"SCREENING 2",-1,"2014-03-28","2014-03-28"
"2248","CDISCPILOT01","SV","01-710-1154",3,"BASELINE",1,"2014-03-29","2014-03-29"
"2249","CDISCPILOT01","SV","01-710-1154",4,"WEEK 2",14,"2014-04-12","2014-04-12"
"2250","CDISCPILOT01","SV","01-710-1154",5,"WEEK 4",28,"2014-04-25","2014-04-25"
"2251","CDISCPILOT01","SV","01-710-1154",7,"WEEK 6",42,"2014-05-09","2014-05-09"
"2252","CDISCPILOT01","SV","01-710-1154",101,"AE FOLLOW-UP",NA,"2014-06-13","2014-06-13"
"2253","CDISCPILOT01","SV","01-710-1166",1,"SCREENING 1",-7,"2012-11-10","2012-11-10"
"2254","CDISCPILOT01","SV","01-710-1166",2,"SCREENING 2",-1,"2012-11-28","2012-11-28"
"2255","CDISCPILOT01","SV","01-710-1166",3,"BASELINE",1,"2012-11-30","2012-11-30"
"2256","CDISCPILOT01","SV","01-710-1166",3.5,"AMBUL ECG PLACEMENT",13,"2012-12-13","2012-12-13"
"2257","CDISCPILOT01","SV","01-710-1166",4,"WEEK 2",14,"2012-12-14","2012-12-14"
"2258","CDISCPILOT01","SV","01-710-1166",5,"WEEK 4",28,"2012-12-28","2012-12-28"
"2259","CDISCPILOT01","SV","01-710-1166",6,"AMBUL ECG REMOVAL",30,"2012-12-30","2012-12-30"
"2260","CDISCPILOT01","SV","01-710-1166",7,"WEEK 6",42,"2013-01-11","2013-01-11"
"2261","CDISCPILOT01","SV","01-710-1166",7.1,"UNSCHEDULED 7.1",NA,"2013-01-16","2013-01-16"
"2262","CDISCPILOT01","SV","01-710-1166",8,"WEEK 8",56,"2013-01-25","2013-01-25"
"2263","CDISCPILOT01","SV","01-710-1166",8.1,"WEEK 10 (T)",70,"2013-02-08","2013-02-08"
"2264","CDISCPILOT01","SV","01-710-1166",9,"WEEK 12",84,"2013-02-22","2013-02-22"
"2265","CDISCPILOT01","SV","01-710-1166",9.1,"WEEK 14 (T)",98,"2013-03-08","2013-03-08"
"2266","CDISCPILOT01","SV","01-710-1166",10,"WEEK 16",112,"2013-03-30","2013-03-30"
"2267","CDISCPILOT01","SV","01-710-1166",101,"AE FOLLOW-UP",NA,"2013-05-22","2013-05-22"
"2268","CDISCPILOT01","SV","01-710-1183",1,"SCREENING 1",-7,"2013-10-24","2013-10-24"
"2269","CDISCPILOT01","SV","01-710-1183",1.1,"UNSCHEDULED 1.1",NA,"2013-11-01","2013-11-01"
"2270","CDISCPILOT01","SV","01-710-1183",2,"SCREENING 2",-1,"2013-11-14","2013-11-14"
"2271","CDISCPILOT01","SV","01-710-1183",3,"BASELINE",1,"2013-11-16","2013-11-16"
"2272","CDISCPILOT01","SV","01-710-1183",3.5,"AMBUL ECG PLACEMENT",13,"2013-11-29","2013-11-29"
"2273","CDISCPILOT01","SV","01-710-1183",4,"WEEK 2",14,"2013-11-30","2013-11-30"
"2274","CDISCPILOT01","SV","01-710-1183",5,"WEEK 4",28,"2013-12-14","2013-12-14"
"2275","CDISCPILOT01","SV","01-710-1183",6,"AMBUL ECG REMOVAL",30,"2013-12-16","2013-12-16"
"2276","CDISCPILOT01","SV","01-710-1183",7,"WEEK 6",42,"2013-12-28","2013-12-28"
"2277","CDISCPILOT01","SV","01-710-1183",8,"WEEK 8",56,"2014-01-11","2014-01-11"
"2278","CDISCPILOT01","SV","01-710-1183",8.1,"WEEK 10 (T)",70,"2014-01-25","2014-01-25"
"2279","CDISCPILOT01","SV","01-710-1183",9,"WEEK 12",84,"2014-02-08","2014-02-08"
"2280","CDISCPILOT01","SV","01-710-1183",9.1,"WEEK 14 (T)",98,"2014-02-21","2014-02-21"
"2281","CDISCPILOT01","SV","01-710-1183",10,"WEEK 16",112,"2014-03-10","2014-03-10"
"2282","CDISCPILOT01","SV","01-710-1183",10.1,"WEEK 18 (T)",126,"2014-03-22","2014-03-22"
"2283","CDISCPILOT01","SV","01-710-1183",10.2,"UNSCHEDULED 10.2",NA,"2014-03-22","2014-03-22"
"2284","CDISCPILOT01","SV","01-710-1183",11,"WEEK 20",140,"2014-04-05","2014-04-05"
"2285","CDISCPILOT01","SV","01-710-1183",11.1,"WEEK 22 (T)",154,"2014-04-19","2014-04-19"
"2286","CDISCPILOT01","SV","01-710-1183",11.2,"UNSCHEDULED 11.2",NA,"2014-04-19","2014-04-19"
"2287","CDISCPILOT01","SV","01-710-1183",12,"WEEK 24",168,"2014-05-03","2014-05-03"
"2288","CDISCPILOT01","SV","01-710-1183",12.1,"UNSCHEDULED 12.1",NA,"2014-05-10","2014-05-10"
"2289","CDISCPILOT01","SV","01-710-1183",13,"WEEK 26",182,"2014-05-17","2014-05-17"
"2290","CDISCPILOT01","SV","01-710-1187",1,"SCREENING 1",-7,"2012-10-26","2012-10-26"
"2291","CDISCPILOT01","SV","01-710-1187",2,"SCREENING 2",-1,"2012-11-08","2012-11-08"
"2292","CDISCPILOT01","SV","01-710-1187",3,"BASELINE",1,"2012-11-10","2012-11-10"
"2293","CDISCPILOT01","SV","01-710-1187",3.5,"AMBUL ECG PLACEMENT",13,"2012-11-23","2012-11-23"
"2294","CDISCPILOT01","SV","01-710-1187",4,"WEEK 2",14,"2012-11-24","2012-11-24"
"2295","CDISCPILOT01","SV","01-710-1187",4.1,"UNSCHEDULED 4.1",NA,"2012-11-25","2012-11-25"
"2296","CDISCPILOT01","SV","01-710-1187",5,"WEEK 4",28,"2012-12-09","2012-12-09"
"2297","CDISCPILOT01","SV","01-710-1187",5.1,"UNSCHEDULED 5.1",NA,"2012-12-06","2012-12-06"
"2298","CDISCPILOT01","SV","01-710-1187",6,"AMBUL ECG REMOVAL",30,"2012-12-11","2012-12-11"
"2299","CDISCPILOT01","SV","01-710-1187",7,"WEEK 6",42,"2012-12-23","2012-12-23"
"2300","CDISCPILOT01","SV","01-710-1187",7.1,"UNSCHEDULED 7.1",NA,"2012-12-30","2012-12-30"
"2301","CDISCPILOT01","SV","01-710-1187",8,"WEEK 8",56,"2013-01-06","2013-01-06"
"2302","CDISCPILOT01","SV","01-710-1187",8.1,"WEEK 10 (T)",70,"2013-01-20","2013-01-20"
"2303","CDISCPILOT01","SV","01-710-1187",9,"WEEK 12",84,"2013-02-03","2013-02-03"
"2304","CDISCPILOT01","SV","01-710-1187",9.1,"WEEK 14 (T)",98,"2013-02-17","2013-02-17"
"2305","CDISCPILOT01","SV","01-710-1187",10,"WEEK 16",112,"2013-03-02","2013-03-02"
"2306","CDISCPILOT01","SV","01-710-1187",10.1,"WEEK 18 (T)",126,"2013-03-15","2013-03-15"
"2307","CDISCPILOT01","SV","01-710-1187",11,"WEEK 20",140,"2013-03-31","2013-03-31"
"2308","CDISCPILOT01","SV","01-710-1187",11.1,"WEEK 22 (T)",154,"2013-03-31","2013-03-31"
"2309","CDISCPILOT01","SV","01-710-1187",12,"WEEK 24",168,"2013-04-28","2013-04-28"
"2310","CDISCPILOT01","SV","01-710-1187",13,"WEEK 26",182,"2013-05-12","2013-05-12"
"2311","CDISCPILOT01","SV","01-710-1235",1,"SCREENING 1",-7,"2012-09-13","2012-09-13"
"2312","CDISCPILOT01","SV","01-710-1235",2,"SCREENING 2",-1,"2012-09-23","2012-09-23"
"2313","CDISCPILOT01","SV","01-710-1235",3,"BASELINE",1,"2012-09-26","2012-09-26"
"2314","CDISCPILOT01","SV","01-710-1235",3.5,"AMBUL ECG PLACEMENT",13,"2012-10-09","2012-10-09"
"2315","CDISCPILOT01","SV","01-710-1235",4,"WEEK 2",14,"2012-10-10","2012-10-10"
"2316","CDISCPILOT01","SV","01-710-1235",5,"WEEK 4",28,"2012-10-24","2012-10-24"
"2317","CDISCPILOT01","SV","01-710-1235",6,"AMBUL ECG REMOVAL",30,"2012-10-27","2012-10-27"
"2318","CDISCPILOT01","SV","01-710-1235",7,"WEEK 6",42,"2012-11-07","2012-11-07"
"2319","CDISCPILOT01","SV","01-710-1235",8,"WEEK 8",56,"2012-11-21","2012-11-21"
"2320","CDISCPILOT01","SV","01-710-1235",8.1,"WEEK 10 (T)",70,"2012-12-05","2012-12-05"
"2321","CDISCPILOT01","SV","01-710-1235",9,"WEEK 12",84,"2012-12-19","2012-12-19"
"2322","CDISCPILOT01","SV","01-710-1235",9.1,"WEEK 14 (T)",98,"2013-01-02","2013-01-02"
"2323","CDISCPILOT01","SV","01-710-1235",10,"WEEK 16",112,"2013-01-15","2013-01-15"
"2324","CDISCPILOT01","SV","01-710-1235",10.1,"WEEK 18 (T)",126,"2013-01-29","2013-01-29"
"2325","CDISCPILOT01","SV","01-710-1235",11,"WEEK 20",140,"2013-02-12","2013-02-12"
"2326","CDISCPILOT01","SV","01-710-1235",11.1,"WEEK 22 (T)",154,"2013-02-26","2013-02-26"
"2327","CDISCPILOT01","SV","01-710-1235",12,"WEEK 24",168,"2013-03-13","2013-03-13"
"2328","CDISCPILOT01","SV","01-710-1235",13,"WEEK 26",182,"2013-03-27","2013-03-27"
"2329","CDISCPILOT01","SV","01-710-1249",1,"SCREENING 1",-7,"2013-12-19","2013-12-19"
"2330","CDISCPILOT01","SV","01-710-1249",2,"SCREENING 2",-1,"2013-12-26","2013-12-26"
"2331","CDISCPILOT01","SV","01-710-1249",3,"BASELINE",1,"2013-12-28","2013-12-28"
"2332","CDISCPILOT01","SV","01-710-1249",3.5,"AMBUL ECG PLACEMENT",13,"2014-01-10","2014-01-10"
"2333","CDISCPILOT01","SV","01-710-1249",4,"WEEK 2",14,"2014-01-11","2014-01-11"
"2334","CDISCPILOT01","SV","01-710-1249",5,"WEEK 4",28,"2014-01-25","2014-01-25"
"2335","CDISCPILOT01","SV","01-710-1249",6,"AMBUL ECG REMOVAL",30,"2014-01-27","2014-01-27"
"2336","CDISCPILOT01","SV","01-710-1249",7,"WEEK 6",42,"2014-02-08","2014-02-08"
"2337","CDISCPILOT01","SV","01-710-1249",8,"WEEK 8",56,"2014-02-22","2014-02-22"
"2338","CDISCPILOT01","SV","01-710-1249",8.1,"WEEK 10 (T)",70,"2014-03-08","2014-03-08"
"2339","CDISCPILOT01","SV","01-710-1249",9,"WEEK 12",84,"2014-03-22","2014-03-22"
"2340","CDISCPILOT01","SV","01-710-1249",9.1,"WEEK 14 (T)",98,"2014-04-05","2014-04-05"
"2341","CDISCPILOT01","SV","01-710-1249",10,"WEEK 16",112,"2014-04-19","2014-04-19"
"2342","CDISCPILOT01","SV","01-710-1249",10.1,"WEEK 18 (T)",126,"2014-05-03","2014-05-03"
"2343","CDISCPILOT01","SV","01-710-1249",11,"WEEK 20",140,"2014-05-17","2014-05-17"
"2344","CDISCPILOT01","SV","01-710-1249",11.1,"WEEK 22 (T)",154,"2014-05-31","2014-05-31"
"2345","CDISCPILOT01","SV","01-710-1249",12,"WEEK 24",168,"2014-06-14","2014-06-14"
"2346","CDISCPILOT01","SV","01-710-1249",13,"WEEK 26",182,"2014-06-28","2014-06-28"
